"time","speed","speed2","gyro.x","gyro.y","gyro.z","accel.x","accel.y","accel.z","rotation.x","rotation.y","vibration","mAvg.speed","mAvg.speed2","mAvg.vibration","mAvg.gyro.x","mAvg.gyro.y","mAvg.gyro.z","mAvg.accel.x","mAvg.accel.y","mAvg.accel.z","mAvg.rotation.x","mAvg.rotation.y"
1528558163847,0,0,19.251908396946565,-5.122137404580153,-4.099236641221374,-0.432373046875,0.49560546875,0.7802734375,-29.05538657867781,25.06789975125857,0,0,0,0,0,0,0,0,0,0,0,0
1528558163942,0,0,11.290076335877863,-7.816793893129771,0.42748091603053434,-0.805419921875,0.55224609375,-0.929443359375,-24.181515584308727,36.68537945385072,0,0,0,0,0,0,0,0,0,0,0,0
1528558164041,0,0,-11.702290076335878,5.083969465648855,-4.923664122137405,-1.002197265625,0.61328125,-0.00830078125,-31.46311712573433,58.53367150433115,0,0,0,0,0,0,0,0,0,0,0,0
1528558164142,0,0,24.763358778625953,-12.48091603053435,0.5725190839694656,-0.602294921875,0.50439453125,0.52880859375,-32.18284045604266,39.49435420009127,0,0,0,0,0,0,0,0,0,0,0,0
1528558164265,0,16.086965005678042,9.290076335877863,-12.099236641221374,1.6793893129770991,-0.737060546875,0.59814453125,-0.705322265625,-30.38399332744795,38.554632106293674,0,0,0,0,0,0,0,0,0,0,0,0
1528558164366,0,16.086965005678042,-19.748091603053435,13.236641221374045,-10.183206106870228,-0.65869140625,0.69140625,0.29052734375,-43.842700115147814,41.29268318971752,0,0,0,0,0,0,0,0,0,0,0,0
1528558164466,0,16.086965005678042,6.091603053435114,4.916030534351145,-1.4961832061068703,-0.6181640625,0.234130859375,-0.008056640625,-20.742669547111845,69.24448672017638,0,0,0,0,0,0,0,0,0,0,0,0
1528558164566,0,16.086965005678042,-29.984732824427482,24.12213740458015,-2.4198473282442747,-0.60302734375,0.698486328125,-0.73486328125,-36.30748807000343,30.743549561893445,0,0,0,0,0,0,0,0,0,0,0,0
1528558164666,0,16.086965005678042,-3.381679389312977,-3.83206106870229,4.5038167938931295,-0.55322265625,0.520751953125,-0.68701171875,-30.55664828751711,32.68975889384421,0,0,0,0,0,0,0,0,0,0,0,0
1528558164789,0,16.086965005678042,-5.259541984732825,5.305343511450381,-1.5877862595419847,-0.760498046875,0.854736328125,0.519775390625,-42.85817239482991,37.24269872099287,0,0,0,0,0,0,0,0,0,0,0,0
1528558164890,0,16.086965005678042,14.366412213740459,-6.732824427480916,1.297709923664122,-0.888916015625,0.665283203125,-0.46044921875,-33.60632380894921,47.69183421491523,0,0,0,0,0,0,0,0,0,0,0,0
1528558164990,0,16.086965005678042,-27.389312977099237,11.022900763358779,0.8015267175572519,-0.867919921875,0.776123046875,0.043701171875,-41.76810676489677,48.150787854342916,0,0,0,0,0,0,0,0,0,0,0,0
1528558165090,0,16.086965005678042,-0.19083969465648856,-1.5114503816793894,-8.854961832061068,-0.462158203125,0.864990234375,-0.049560546875,-61.74835754010669,28.076269194266807,0,0,0,0,0,0,0,0,0,0,0,0
1528558165190,0,16.086965005678042,12.358778625954198,-6.396946564885496,-6.106870229007634,-0.92431640625,0.40234375,-0.0087890625,-23.521961826945404,66.47208843009754,0,0,0,0,0,0,0,0,0,0,0,0
1528558165291,0,16.086965005678042,-10.664122137404581,6.129770992366412,0.8778625954198473,-0.697265625,0.574462890625,-0.22607421875,-38.08632409027391,48.47887956268177,0,0,0,0,0,0,0,0,0,0,0,0
1528558165391,0,16.086965005678042,2.984732824427481,-4.290076335877862,2.198473282442748,-0.78271484375,0.5185546875,-0.1328125,-33.15142448778024,55.632080973960186,0,0,0,0,0,0,0,0,0,0,0,0
1528558165491,0,16.086965005678042,-3.4427480916030535,-4.641221374045801,0.7938931297709924,-0.6552734375,0.612548828125,-0.383544921875,-38.89523157845622,42.19790516328682,0,0,0,0,0,0,0,0,0,0,0,0
1528558165591,0,16.086965005678042,-10.404580152671755,0.9923664122137404,1.2900763358778626,-0.887451171875,0.66064453125,0.013427734375,-36.661930991764216,53.32926022127672,0,0,0,0,0,0,0,0,0,0,0,0
1528558165691,0,16.086965005678042,1.3435114503816794,16.091603053435115,1.6717557251908397,-0.764892578125,0.430419921875,1.01513671875,-18.707841057287915,34.749300766730435,0,0,0,0,0,0,0,0,0,0,0,0
1528558165792,0,16.086965005678042,-33.412213740458014,14.595419847328245,1.3893129770992367,-2,1.99993896484375,-2,-35.26356541016431,35.264801815905415,0,0,0,0,0,0,0,0,0,0,0,0
1528558165892,0,16.086965005678042,6.923664122137405,-10.977099236641221,-6.33587786259542,-0.35546875,0.21923828125,0.681884765625,-15.913063152076427,26.394407068300104,0,0,0,0,0,0,0,0,0,0,0,0
1528558165992,0,16.086965005678042,-7.366412213740458,6.549618320610687,-2.0381679389312977,-0.566162109375,0.205078125,-0.23291015625,-18.520152516380865,61.27163133424305,0,0,0,0,0,0,0,0,0,0,0,0
1528558166092,0,16.086965005678042,-19.12213740458015,11.221374045801527,1.3053435114503817,-0.751708984375,0.384521484375,0.152099609375,-26.62778661038453,61.18506825580182,0,0,0,0,0,0,0,0,0,0,0,0
1528558166192,0,16.086965005678042,-11.396946564885496,-5.076335877862595,-0.16793893129770993,-0.917236328125,0.778076171875,-0.685791015625,-34.19161182334063,41.488532253042365,0,0,0,0,0,0,0,0,0,0,0,0
1528558166292,0,16.086965005678042,14.259541984732824,1.6259541984732824,-2.114503816793893,-0.927001953125,0.632080078125,0.828369140625,-26.95028214259372,41.658048964484955,0,0,0,0,0,0,0,0,0,0,0,0
1528558166392,0,16.086965005678042,4.267175572519084,-11.954198473282442,-1.748091603053435,-0.79638671875,0.794921875,-1.078857421875,-30.659547041726224,30.722156496268866,0,0,0,0,0,0,0,0,0,0,0,0
1528558166488,0,16.086965005678042,-61.9236641221374,-3.3053435114503817,0.6183206106870229,-0.4765625,1.095947265625,0.51513671875,-57.36735995240115,21.481395114649462,0,0,0,0,0,0,0,0,0,0,0,0
1528558166589,0,16.086965005678042,18.106870229007633,0.7099236641221374,-10.251908396946565,-0.33935546875,0.333251953125,0.052490234375,-44.141527336745625,45.1689105862399,0,0,0,0,0,0,0,0,0,0,0,0
1528558166689,0,16.086965005678042,-23.83969465648855,-7.290076335877862,2.0076335877862594,-0.788818359375,0.462646484375,-0.452392578125,-26.96578633539628,50.63782990166415,0,0,0,0,0,0,0,0,0,0,0,0
1528558166789,0,16.086965005678042,-17.81679389312977,24.595419847328245,4.862595419847328,-0.929443359375,0.605712890625,0.5966796875,-28.74085026595177,47.54808837971558,0,0,0,0,0,0,0,0,0,0,0,0
1528558166889,0,16.086965005678042,-46.62595419847328,7.633587786259542,-6.99236641221374,0.7822265625,-0.09716796875,-2,2.5906618354062894,-21.338226528910567,0,0,0,0,0,0,0,0,0,0,0,0
1528558166989,0,16.086965005678042,-3.3893129770992365,-10.427480916030534,-2.2977099236641223,-1.115966796875,0.5224609375,0.88671875,-20.130237721397037,47.31644287136152,0,0,0,0,0,0,0,0,0,0,0,0
1528558167089,0,16.086965005678042,15.19083969465649,-6.755725190839694,-5.786259541984733,-0.649169921875,0.7373046875,-0.056884765625,-48.52854710543812,41.278432742488114,0,0,0,0,0,0,0,0,0,0,0,0
1528558167189,0,16.086965005678042,26.38167938931298,-23.18320610687023,-0.5343511450381679,-0.761962890625,0.67578125,0.03369140625,-41.54189018534135,48.39502727383049,0,0,0,0,0,0,0,0,0,0,0,0
1528558167289,0,16.086965005678042,-3.49618320610687,8.679389312977099,-4.015267175572519,-0.63525390625,0.5537109375,-0.03564453125,-41.032017577943485,48.86469267220991,0,0,0,0,0,0,0,0,0,0,0,0
1528558167389,0,16.086965005678042,-12.893129770992367,-8.587786259541986,0.1450381679389313,-0.621826171875,0.662353515625,-0.55322265625,-38.51316489528184,35.77429280547027,0,0,0,0,0,0,0,0,0,0,0,0
1528558167489,0,16.086965005678042,-4.244274809160306,0.9312977099236641,-7.9465648854961835,-0.752685546875,0.560546875,0.33740234375,-34.19905312692602,49.001815084777554,0,0,0,0,0,0,0,0,0,0,0,0
1528558167590,0,16.086965005678042,12.305343511450381,-1.0305343511450382,-3.854961832061069,-0.579833984375,0.16650390625,-0.138671875,-15.604090273626989,69.50898381555974,0,0,0,0,0,0,0,0,0,0,0,0
1528558167690,0,16.086965005678042,-18,9.770992366412214,1.0458015267175573,-0.524658203125,0.917724609375,-0.177734375,-58.88449708874574,29.304001087579717,0,0,0,0,0,0,0,0,0,0,0,0
1528558167790,0,16.086965005678042,15.633587786259541,-2.732824427480916,-3.366412213740458,-0.846923828125,0.28515625,0.41796875,-16.800625759095553,59.144710966459286,0,0,0,0,0,0,0,0,0,0,0,0
1528558167890,0,16.086965005678042,-15.816793893129772,2.3893129770992365,2.0381679389312977,-0.575439453125,0.678955078125,-1.0908203125,-28.833693482025197,24.125750768067366,0,0,0,0,0,0,0,0,0,0,0,0
1528558167991,0,16.086965005678042,-1.6793893129770991,-4.198473282442748,4.343511450381679,-0.899658203125,0.67236328125,0.56982421875,-32.26692667068272,45.5890687499246,0,0,0,0,0,0,0,0,0,0,0,0
1528558168095,0,16.086965005678042,4.4961832061068705,0.6564885496183206,-1.9236641221374047,-0.38427734375,0.26025390625,-0.522216796875,-21.870487154629153,33.36897187247406,0,0,0,0,0,0,0,0,0,0,0,0
1528558168195,0,16.086965005678042,-10.877862595419847,-6.816793893129771,-2.053435114503817,-0.73388671875,1.013427734375,0.22509765625,-52.857495610776105,35.257805851651526,0,0,0,0,0,0,0,0,0,0,0,0
1528558168295,0,16.086965005678042,4.900763358778626,6.114503816793893,-3.183206106870229,-0.688232421875,0.510498046875,0.385009765625,-32.916755179436606,47.1061858126916,0,0,0,0,0,0,0,0,0,0,0,0
1528558168396,0,16.086965005678042,2.213740458015267,-12.923664122137405,-2.5801526717557253,-0.643310546875,0.774658203125,-1.212890625,-29.433208949082594,24.084753139268415,0,0,0,0,0,0,0,0,0,0,0,0
1528558168496,0,16.086965005678042,-25.30534351145038,19.755725190839694,0.3282442748091603,-0.991943359375,0.745361328125,0.659912109375,-32.03082505474793,44.897072240737046,0,0,0,0,0,0,0,0,0,0,0,0
1528558168596,0,16.086965005678042,9.51908396946565,-3.7099236641221376,-2.145038167938931,0.000244140625,0.389892578125,-0.594970703125,-33.237380807496784,-0.019664580203996758,0,0,0,0,0,0,0,0,0,0,0,0
1528558168697,16.086965005678042,16.086965005678042,-11.32824427480916,-8.65648854961832,0.13740458015267176,-1.6884765625,0.8203125,0.20556640625,-25.746570002283125,63.39589669217252,0,0,0,0,0,0,0,0,0,0,0,0
1528558168802,16.086965005678042,16.086965005678042,19.923664122137403,-5.679389312977099,-1.16793893129771,-0.427734375,0.81005859375,0.6708984375,-45.51406533722405,22.12989956220487,0,0.2,14.4,0,-4,0,-0.8,0,0,0,-31.8,40.8
1528558168898,16.086965005678042,16.086965005678042,19,-15.931297709923664,-5.396946564885496,-0.716552734375,0.58203125,-1.019287109375,-25.039071709847825,31.403133655300422,0,0.2,14.4,0,-4,0,-0.8,0,0,0,-31.8,40.8
1528558168998,16.086965005678042,16.086965005678042,-29.267175572519083,13.786259541984732,-0.08396946564885496,-0.934814453125,0.790771484375,0.19580078125,-39.622930292629945,48.92920939030531,0,0.2,14.4,0,-4,0,-0.8,0,0,0,-31.8,40.8
1528558169098,16.086965005678042,16.086965005678042,10.442748091603054,5.702290076335878,-6.076335877862595,-0.3486328125,0.455078125,0.19873046875,-48.593563955184926,35.07155420392236,0,0.2,14.4,0,-4,0,-0.8,0,0,0,-31.8,40.8
1528558169198,16.086965005678042,16.086965005678042,-54.229007633587784,-0.7175572519083969,-9.419847328244275,0.184326171875,0.639892578125,-0.256103515625,-63.751486735266184,-14.97245633019476,0,0.2,14.4,0,-4,0,-0.8,0,0,0,-31.8,40.8
1528558169298,16.086965005678042,16.086965005678042,-5.33587786259542,22.229007633587788,1.6106870229007633,-1.035888671875,0.348876953125,0.8134765625,-14.835711824536393,49.48721536218947,0,0.2,14.4,0,-4,0,-0.8,0,0,0,-31.8,40.8
1528558169398,16.086965005678042,16.086965005678042,-23.022900763358777,23.053435114503817,-17.091603053435115,0.74169921875,0.36962890625,-1.753173828125,-10.988524427271237,-22.48761808539744,0,0.2,14.4,0,-4,0,-0.8,0,0,0,-31.8,40.8
1528558169499,16.086965005678042,16.086965005678042,16.206106870229007,-27.47328244274809,13.931297709923664,-0.8876953125,0.2333984375,-0.08154296875,-14.672060806606448,74.43689822308012,0,0.2,14.4,0,-4,0,-0.8,0,0,0,-31.8,40.8
1528558169599,16.086965005678042,16.086965005678042,10.13740458015267,1.748091603053435,-5.343511450381679,-0.11279296875,0.3525390625,-0.344482421875,-44.203613842422556,12.889335288716207,0,0.2,14.4,0,-4,0,-0.8,0,0,0,-31.8,40.8
1528558169699,17.695661506245845,32.173930011356084,36.229007633587784,-21.47328244274809,4.7251908396946565,-0.640869140625,0.635498046875,-0.564208984375,-36.65961654018703,37.020886064041974,0,0.2,14.4,0,-4,0,-0.8,0,0,0,-31.8,40.8
1528558169800,17.695661506245845,32.173930011356084,49.76335877862596,-40.37404580152672,-2.3740458015267176,-0.224365234375,1.07861328125,0.3876953125,-67.44739807118624,11.075683792186542,0,3.4,16.2,0,-4,0,-1,0,0,0,-32.6,38
1528558169900,17.695661506245845,32.173930011356084,27.84732824427481,-13.748091603053435,-32.458015267175576,-0.613525390625,0.789306640625,-0.176513671875,-51.03313510720888,37.18249486667664,0,3.4,16.2,0,-4,0,-1,0,0,0,-32.6,38
1528558170000,17.695661506245845,32.173930011356084,-104.4885496183206,64.3587786259542,25.12213740458015,-1.256591796875,-0.14599609375,-0.669921875,5.853755569376609,61.38138461781056,0,3.4,16.2,0,-4,0,-1,0,0,0,-32.6,38
1528558170100,17.695661506245845,32.173930011356084,77.81679389312977,-54.12977099236641,-9.541984732824428,-0.185791015625,1.4443359375,0.406005859375,-72.82173121811506,7.059262725153981,0,3.4,16.2,0,-4,0,-1,0,0,0,-32.6,38
1528558170200,17.695661506245845,16.086965005678042,-69.87786259541984,55.343511450381676,-20.0381679389313,-1.00537109375,-0.028564453125,-0.7431640625,1.30883419914207,53.5082005271403,0,3.4,16.2,0,-4,0,-1,0,0,0,-32.6,38
1528558170300,17.695661506245845,16.086965005678042,17.748091603053435,-18.625954198473284,13.244274809160306,-0.724365234375,0.744140625,-0.07177734375,-45.63160125426577,44.09588704302628,0,3.4,16.2,0,-4,0,-1,0,0,0,-32.6,38
1528558170400,17.695661506245845,16.086965005678042,55.14503816793893,-33.221374045801525,-32.79389312977099,0.068115234375,1.384521484375,-0.3076171875,-77.17982539176323,-2.7496047212737693,0,3.4,16.2,0,-4,0,-1,0,0,0,-32.6,38
1528558170500,17.695661506245845,16.086965005678042,-53.13740458015267,11.618320610687023,19.47328244274809,-1.665283203125,-0.019287109375,-0.319091796875,0.6517079946952347,79.13347283388138,0,3.4,16.2,0,-4,0,-1,0,0,0,-32.6,38
1528558170600,17.695661506245845,16.086965005678042,21.68702290076336,-3.145038167938931,-23.290076335877863,0.215576171875,1.361328125,0.087890625,-80.29557399015249,-8.98008917190335,0,3.4,16.2,0,-4,0,-1,0,0,0,-32.6,38
1528558170700,17.695661506245845,16.086965005678042,-69.0381679389313,38.045801526717554,20.236641221374047,-1.334716796875,-0.18115234375,-0.819580078125,6.597455358476718,57.83550232421075,0,3.4,16.2,0,-4,0,-1,0,0,0,-32.6,38
1528558170801,17.695661506245845,16.086965005678042,49.969465648854964,-50.41984732824427,-10.732824427480915,-0.32275390625,1.695068359375,0.315185546875,-75.0968358052332,10.602990307244257,0,6.8,17.4,0,-4.4,-0.2,-1.8,0,0,0,-32.8,35.4
1528558170901,17.695661506245845,16.086965005678042,-86.46564885496183,60.36641221374046,-9.694656488549619,-1.129638671875,-0.391845703125,-0.523681640625,17.469046933774717,59.92944914496609,0,6.8,17.4,0,-4.4,-0.2,-1.8,0,0,0,-32.8,35.4
1528558171001,17.695661506245845,16.086965005678042,4.679389312977099,-6.2748091603053435,14.16030534351145,-0.640869140625,0.71875,-0.0869140625,-48.01891482424857,41.51511209906089,0,6.8,17.4,0,-4.4,-0.2,-1.8,0,0,0,-32.8,35.4
1528558171101,17.695661506245845,16.086965005678042,23.595419847328245,-28.328244274809162,-19.35114503816794,-0.47509765625,1.070556640625,-0.509033203125,-56.95967931584246,21.8402353545945,0,6.8,17.4,0,-4.4,-0.2,-1.8,0,0,0,-32.8,35.4
1528558171201,17.695661506245845,16.086965005678042,-85.52671755725191,51.83969465648855,12.50381679389313,-1.4267578125,-0.248779296875,-0.232177734375,9.765113017580767,76.58522353469536,0,6.8,17.4,0,-4.4,-0.2,-1.8,0,0,0,-32.8,35.4
1528558171302,17.695661506245845,16.086965005678042,105.80916030534351,-79.10687022900764,-7.114503816793893,0.029052734375,1.1142578125,-0.05859375,-86.64089749622164,-1.4915101355393046,0,6.8,17.4,0,-4.4,-0.2,-1.8,0,0,0,-32.8,35.4
1528558171403,17.695661506245845,16.086965005678042,-88.55725190839695,65.55725190839695,-8.679389312977099,-1.116455078125,-0.10791015625,-0.173583984375,5.455589391002804,79.62562328296711,0,6.8,17.4,0,-4.4,-0.2,-1.8,0,0,0,-32.8,35.4
1528558171503,17.695661506245845,16.086965005678042,12.770992366412214,-22.541984732824428,16.213740458015266,-0.77099609375,0.80322265625,-0.12451171875,-45.80419937764475,43.487480978247135,0,6.8,17.4,0,-4.4,-0.2,-1.8,0,0,0,-32.8,35.4
1528558171604,17.695661506245845,16.086965005678042,54.274809160305345,-35.282442748091604,-22.206106870229007,-0.46337890625,1.125732421875,0.015869140625,-67.61491804983297,22.371256503808727,0,6.8,17.4,0,-4.4,-0.2,-1.8,0,0,0,-32.8,35.4
1528558171704,17.695661506245845,16.086965005678042,-112.65648854961832,88.19083969465649,-8.251908396946565,0.02783203125,-1.12353515625,0.099365234375,84.75247199725386,-1.413516612800927,0,6.8,17.4,0,-4.4,-0.2,-1.8,0,0,0,-32.8,35.4
1528558171804,17.695661506245845,16.086965005678042,65.08396946564885,-47.0763358778626,6.236641221374046,-0.201904296875,1.16552734375,0.190185546875,-76.61370459182024,9.701986743479985,0,10.2,17.4,0,-4.6,0.6,-2.4,0,0,0,-31.8,34.2
1528558171905,17.695661506245845,16.086965005678042,42.85496183206107,-28.61832061068702,-21.46564885496183,-0.688232421875,0.667236328125,-0.231689453125,-42.57756848553354,44.25700978863904,0,10.2,17.4,0,-4.6,0.6,-2.4,0,0,0,-31.8,34.2
1528558172005,17.695661506245845,16.086965005678042,-79.05343511450381,51.099236641221374,9.038167938931299,-1.148681640625,-0.192626953125,-0.28173828125,9.25035091548851,73.45236691516348,0,10.2,17.4,0,-4.6,0.6,-2.4,0,0,0,-31.8,34.2
1528558172105,17.695661506245845,16.086965005678042,2.0229007633587788,-7.66412213740458,12.740458015267176,-0.38720703125,0.7353515625,-0.059814453125,-61.951038908863545,27.691704177544946,0,10.2,17.4,0,-4.6,0.6,-2.4,0,0,0,-31.8,34.2
1528558172205,17.695661506245845,16.086965005678042,38.19083969465649,-24.259541984732824,-21.396946564885496,-0.5693359375,0.69482421875,-0.17138671875,-49.44583812268298,38.50405400865421,0,10.2,17.4,0,-4.6,0.6,-2.4,0,0,0,-31.8,34.2
1528558172305,17.695661506245845,16.086965005678042,-47.05343511450382,33.19083969465649,-3.6259541984732824,-1.114013671875,0.04638671875,-0.421875,-2.2300004673140834,69.14413287456397,0,10.2,17.4,0,-4.6,0.6,-2.4,0,0,0,-31.8,34.2
1528558172405,17.695661506245845,16.086965005678042,-12.389312977099237,-0.3969465648854962,20.893129770992367,-0.798095703125,0.570556640625,-0.105224609375,-35.32763532426549,53.98458939685647,0,10.2,17.4,0,-4.6,0.6,-2.4,0,0,0,-31.8,34.2
1528558172506,17.695661506245845,16.086965005678042,52.7557251908397,-36.0763358778626,-18.38167938931298,-0.110107421875,1.451904296875,0.114501953125,-83.75609002793121,4.3234407117977876,0,10.2,17.4,0,-4.6,0.6,-2.4,0,0,0,-31.8,34.2
1528558172605,17.695661506245845,16.086965005678042,-54.05343511450382,34.961832061068705,-2.8931297709923665,-1.52099609375,-0.44775390625,-0.42041015625,15.840898589827303,68.01079117944852,0,10.2,17.4,0,-4.6,0.6,-2.4,0,0,0,-31.8,34.2
1528558172705,17.695661506245845,16.086965005678042,-5.938931297709924,-5.458015267175573,24,-0.548583984375,0.862060546875,-0.036376953125,-57.47185042904544,32.44811189176595,0,10.2,17.4,0,-4.6,0.6,-2.4,0,0,0,-31.8,34.2
1528558172805,17.695661506245845,16.086965005678042,64.03053435114504,-39.969465648854964,-20.81679389312977,-0.1953125,1.225830078125,-0.01025390625,-80.93485111406768,9.052576883295869,0,13.6,17.4,0,-3.6,0,-2,0,0,0,-33,34.8
1528558172919,17.695661506245845,16.086965005678042,-73.70992366412214,50.82442748091603,-9.488549618320612,-1.433837890625,-0.433837890625,-0.478759765625,16.013226725432265,65.74374062927257,0,13.6,17.4,0,-3.6,0,-2,0,0,0,-33,34.8
1528558173019,17.695661506245845,16.086965005678042,-27.862595419847327,5.175572519083969,30.282442748091604,-0.816650390625,0.7353515625,-0.298828125,-40.21832128595207,45.81468361597224,0,13.6,17.4,0,-3.6,0,-2,0,0,0,-33,34.8
1528558173122,17.695661506245845,16.086965005678042,79.7175572519084,-34.14503816793893,-29.83206106870229,-0.1748046875,1.64697265625,0.35302734375,-76.54829285071511,5.92492490920767,0,13.6,17.4,0,-3.6,0,-2,0,0,0,-33,34.8
1528558173222,19.304358006813647,32.173930011356084,-41.274809160305345,28.541984732824428,-17.106870229007633,-1.47705078125,-0.5947265625,-0.498291015625,20.88282279298846,62.287427948867,0,13.6,17.4,0,-3.6,0,-2,0,0,0,-33,34.8
1528558173322,19.304358006813647,32.173930011356084,-53.29007633587786,19.69465648854962,35.656488549618324,-0.708740234375,0.442626953125,-0.1298828125,-31.562254092686004,56.94156319957953,0,13.6,17.4,0,-3.6,0,-2,0,0,0,-33,34.8
1528558173422,19.304358006813647,32.173930011356084,81.16793893129771,-54.19083969465649,-11.358778625954198,0.1142578125,1.376953125,-0.10595703125,-83.5434634885252,-4.729545280957548,0,13.6,17.4,0,-3.6,0,-2,0,0,0,-33,34.8
1528558173522,19.304358006813647,32.173930011356084,-30.908396946564885,21.68702290076336,-17.732824427480917,-1.1953125,0.193359375,-0.10205078125,-9.156094351615659,79.63449189632321,0,13.6,17.4,0,-3.6,0,-2,0,0,0,-33,34.8
1528558173622,19.304358006813647,32.173930011356084,-30.641221374045802,12.381679389312977,26.580152671755727,-0.819091796875,0.266845703125,-0.2861328125,-17.095631552339526,64.46776167140516,0,13.6,17.4,0,-3.6,0,-2,0,0,0,-33,34.8
1528558173722,19.304358006813647,16.086965005678042,-7.450381679389313,-0.03816793893129771,2.931297709923664,-0.525634765625,1.130859375,-0.0009765625,-65.07048519408194,24.92946884384773,0,13.6,17.4,0,-3.6,0,-2,0,0,0,-33,34.8
1528558173822,19.304358006813647,16.086965005678042,9.969465648854962,-6.6106870229007635,-6.763358778625954,-0.837646484375,0.323974609375,-0.4287109375,-18.998310664569033,57.31949647326603,0,17,19,0,-4,0.2,-2.2,0,0,0,-34.2,35.6
1528558173923,19.304358006813647,16.086965005678042,-14.511450381679388,-9.67175572519084,-5.488549618320611,-1.065673828125,1.099365234375,-0.234375,-45.21507132414965,43.472371195438335,0,17,19,0,-4,0.2,-2.2,0,0,0,-34.2,35.6
1528558174023,19.304358006813647,16.086965005678042,-2.8473282442748094,20.404580152671755,6.480916030534351,-1.123779296875,0.0615234375,0.66943359375,-2.692871196706824,59.11176122735944,0,17,19,0,-4,0.2,-2.2,0,0,0,-34.2,35.6
1528558174123,19.304358006813647,16.086965005678042,-21.625954198473284,8.511450381679388,-1.7709923664122138,-0.591796875,1.119873046875,-1.6474609375,-32.60843563258546,16.54563560372363,0,17,19,0,-4,0.2,-2.2,0,0,0,-34.2,35.6
1528558174223,19.304358006813647,16.086965005678042,11.473282442748092,-11.122137404580153,-6.251908396946565,-1.492919921875,0.487060546875,0.784912109375,-16.10704694026091,58.252674601924504,0,17,19,0,-4,0.2,-2.2,0,0,0,-34.2,35.6
1528558174323,19.304358006813647,16.086965005678042,-3.7709923664122136,4.694656488549619,4.351145038167939,-0.456787109375,0.333251953125,-0.474365234375,-26.84148702063709,38.235979313684346,0,17,19,0,-4,0.2,-2.2,0,0,0,-34.2,35.6
1528558174423,19.304358006813647,16.086965005678042,-2.366412213740458,-10.526717557251908,3.282442748091603,-1.0244140625,0.716796875,0.2890625,-33.95703490779092,52.966624169889265,0,17,19,0,-4,0.2,-2.2,0,0,0,-34.2,35.6
1528558174523,19.304358006813647,16.086965005678042,9.67175572519084,5.099236641221374,-9.419847328244275,-0.281494140625,0.583251953125,0.068115234375,-63.59296209695553,25.61169719441822,0,17,19,0,-4,0.2,-2.2,0,0,0,-34.2,35.6
1528558174623,19.304358006813647,16.086965005678042,-8.427480916030534,-52.10687022900763,3.618320610687023,-0.7529296875,0.49072265625,-0.936767578125,-22.210539365414522,35.45005992962321,0,17,19,0,-4,0.2,-2.2,0,0,0,-34.2,35.6
1528558174723,17.695661506245845,16.086965005678042,-12.091603053435115,4.206106870229007,-2.114503816793893,-0.93115234375,0.587646484375,0.26220703125,-31.277450516246123,55.35282310823971,0,17,19,0,-4,0.2,-2.2,0,0,0,-34.2,35.6
1528558174824,17.695661506245845,16.086965005678042,-1.7938931297709924,-2.5877862595419847,1.8091603053435115,-0.953857421875,0.626953125,-0.055908203125,-33.271110134941935,56.57957894149266,0,17.6,18.8,0,-4.6,-0.6,-2,0,0,0,-33.2,39
1528558174924,17.695661506245845,16.086965005678042,-7.648854961832061,6.0458015267175576,-2.6564885496183206,-0.788330078125,0.58740234375,-0.085693359375,-36.52951985134146,53.01990089698756,0,17.6,18.8,0,-4.6,-0.6,-2,0,0,0,-33.2,39
1528558175024,17.695661506245845,16.086965005678042,-12.045801526717558,4.67175572519084,-1.0381679389312977,-0.495361328125,0.51025390625,-0.681884765625,-31.191170088470376,30.18406662609975,0,17.6,18.8,0,-4.6,-0.6,-2,0,0,0,-33.2,39
1528558175124,17.695661506245845,16.086965005678042,1.1450381679389312,-17.549618320610687,7.755725190839694,-0.99169921875,0.583740234375,0.06884765625,-30.422005600105383,59.34451641969703,0,17.6,18.8,0,-4.6,-0.6,-2,0,0,0,-33.2,39
1528558175224,17.695661506245845,16.086965005678042,12.053435114503817,-7.374045801526718,-2.1526717557251906,-0.517333984375,0.907470703125,0.55322265625,-50.14983628875711,25.955058853013426,0,17.6,18.8,0,-4.6,-0.6,-2,0,0,0,-33.2,39
1528558175324,17.695661506245845,16.086965005678042,-5.709923664122138,9.458015267175572,-2.312977099236641,-0.67626953125,0.192626953125,-0.64306640625,-11.662853994216798,45.211424620199764,0,17.6,18.8,0,-4.6,-0.6,-2,0,0,0,-33.2,39
1528558175424,17.695661506245845,16.086965005678042,-30.732824427480917,4.1603053435114505,1.8854961832061068,-1.2333984375,1.14453125,0.039306640625,-42.84525817299994,47.1234049864781,0,17.6,18.8,0,-4.6,-0.6,-2,0,0,0,-33.2,39
1528558175524,17.695661506245845,16.086965005678042,-2.1603053435114505,6.587786259541985,-6.015267175572519,-0.8291015625,0.574951171875,0.52685546875,-30.33997351771732,46.75381332641051,0,17.6,18.8,0,-4.6,-0.6,-2,0,0,0,-33.2,39
1528558175624,17.695661506245845,16.086965005678042,13.961832061068701,-9.114503816793894,0.04580152671755725,-0.863037109375,0.5517578125,-0.7001953125,-26.403191469782985,44.07172209973724,0,17.6,18.8,0,-4.6,-0.6,-2,0,0,0,-33.2,39
1528558175724,17.695661506245845,16.086965005678042,-15.664122137404581,5.923664122137405,-3.572519083969466,-0.864013671875,0.790283203125,-0.104736328125,-42.24001611167205,47.30342124020067,0,17.6,18.8,0,-4.6,-0.6,-2,0,0,0,-33.2,39
1528558175824,17.695661506245845,16.086965005678042,-10.358778625954198,7.9465648854961835,4.4961832061068705,-1.12841796875,0.20556640625,0.509033203125,-9.428394399411289,64.05713738080111,0,17.6,17.6,0,-4.6,-0.6,-1.2,0,0,0,-32.4,41.4
1528558175924,17.695661506245845,16.086965005678042,-6.511450381679389,4.229007633587786,4.740458015267175,-0.55810546875,0.916748046875,-1.23974609375,-33.99134357435321,19.89843278762973,0,17.6,17.6,0,-4.6,-0.6,-1.2,0,0,0,-32.4,41.4
1528558176024,17.695661506245845,16.086965005678042,-16.18320610687023,-8.786259541984732,4.625954198473282,-1.36328125,0.74462890625,0.0390625,-28.63362911501968,61.32334797925975,0,17.6,17.6,0,-4.6,-0.6,-1.2,0,0,0,-32.4,41.4
1528558176124,17.695661506245845,16.086965005678042,22.412213740458014,5.038167938931298,-4.854961832061068,-0.2412109375,0.47705078125,0.6162109375,-35.78800823523966,17.198677823395467,0,17.6,17.6,0,-4.6,-0.6,-1.2,0,0,0,-32.4,41.4
1528558176224,17.695661506245845,16.086965005678042,26.709923664122137,-22.610687022900763,-3.6259541984732824,-0.577392578125,0.327880859375,-1.210693359375,-13.736296527711893,24.717949471061246,0,17.6,17.6,0,-4.6,-0.6,-1.2,0,0,0,-32.4,41.4
1528558176324,17.695661506245845,16.086965005678042,-26.46564885496183,13.267175572519085,0.9618320610687023,-0.75927734375,0.781494140625,0.1630859375,-45.180172330569384,43.56378428942342,0,17.6,17.6,0,-4.6,-0.6,-1.2,0,0,0,-32.4,41.4
1528558176424,17.695661506245845,16.086965005678042,4.00763358778626,11.068702290076336,-0.6793893129770993,-0.251708984375,0.589599609375,0.320068359375,-55.37042278741925,20.565880641305686,0,17.6,17.6,0,-4.6,-0.6,-1.2,0,0,0,-32.4,41.4
1528558176524,17.695661506245845,16.086965005678042,8.641221374045802,-13.541984732824428,-6.648854961832061,-0.06298828125,0.752685546875,-0.118408203125,-79.8966259728996,4.725784485800794,0,17.6,17.6,0,-4.6,-0.6,-1.2,0,0,0,-32.4,41.4
1528558176625,17.695661506245845,16.086965005678042,-3.572519083969466,8.122137404580153,-3.8473282442748094,-1.01708984375,0.250732421875,0.705810546875,-11.449273484570229,53.63068388426571,0,17.6,17.6,0,-4.6,-0.6,-1.2,0,0,0,-32.4,41.4
1528558176725,17.695661506245845,16.086965005678042,10.877862595419847,-3.236641221374046,-7.816793893129771,-0.247802734375,0.211181640625,-0.552001953125,-19.239953582030406,22.74734213949302,0,17.6,17.6,0,-4.6,-0.6,-1.2,0,0,0,-32.4,41.4
1528558176826,17.695661506245845,16.086965005678042,-2.2213740458015265,-11.427480916030534,-7.244274809160306,-1.160888671875,0.51806640625,0.264404296875,-23.515004924288213,63.38784865683916,0,17.6,17.6,0,-2.2,-1.4,-0.6,0,0,0,-33.8,41
1528558176926,17.695661506245845,16.086965005678042,8.82442748091603,-5.427480916030534,-1.8396946564885497,-0.7314453125,0.507080078125,0.03662109375,-34.69835758969842,55.19825690646565,0,17.6,17.6,0,-2.2,-1.4,-0.6,0,0,0,-33.8,41
1528558177027,17.695661506245845,16.086965005678042,-16.885496183206108,6.068702290076335,3.183206106870229,-0.888916015625,0.62353515625,-0.322021484375,-33.40540187551802,51.70970521503459,0,17.6,17.6,0,-2.2,-1.4,-0.6,0,0,0,-33.8,41
1528558177127,17.695661506245845,16.086965005678042,-5.1603053435114505,8.099236641221374,-0.10687022900763359,-0.867431640625,0.957275390625,0.728515625,-40.20025771492024,35.794673187072746,0,17.6,17.6,0,-2.2,-1.4,-0.6,0,0,0,-33.8,41
1528558177227,17.695661506245845,16.086965005678042,6.748091603053435,-13.458015267175572,-2.3206106870229006,0.563232421875,-0.21240234375,-2,5.836780081328282,-15.644445452061852,0,17.6,17.6,0,-2.2,-1.4,-0.6,0,0,0,-33.8,41
1528558177327,17.695661506245845,16.086965005678042,-3.0076335877862594,0.8015267175572519,-5.076335877862595,-1.11962890625,0.59375,0.26953125,-27.274749757206248,59.78381738251186,0,17.6,17.6,0,-2.2,-1.4,-0.6,0,0,0,-33.8,41
1528558177427,17.695661506245845,16.086965005678042,1.3282442748091603,1.213740458015267,-6.748091603053435,-0.780517578125,0.621826171875,0.060546875,-38.46005002551093,51.324400829634605,0,17.6,17.6,0,-2.2,-1.4,-0.6,0,0,0,-33.8,41
1528558177527,17.695661506245845,16.086965005678042,12.053435114503817,-13.80916030534351,-5.969465648854962,-0.9013671875,0.736083984375,-0.45849609375,-36.04996009225633,46.10672037513657,0,17.6,17.6,0,-2.2,-1.4,-0.6,0,0,0,-33.8,41
1528558177627,17.695661506245845,16.086965005678042,-43.656488549618324,30.374045801526716,1.6106870229007633,-0.694580078125,0.61669921875,0.037109375,-41.560484292780636,48.347563552501924,0,17.6,17.6,0,-2.2,-1.4,-0.6,0,0,0,-33.8,41
1528558177727,17.695661506245845,16.086965005678042,-4.67175572519084,5.8320610687022905,1.4732824427480915,-0.70703125,0.489501953125,-0.107666015625,-34.38945463694707,54.6678069048959,0,17.6,17.6,0,-2.2,-1.4,-0.6,0,0,0,-33.8,41
1528558177827,17.695661506245845,16.086965005678042,11.86259541984733,-11.48091603053435,-4.633587786259542,-0.71240234375,0.640625,-0.417724609375,-37.80165412998182,42.96912621605144,0,17.6,17.6,0,-3,-0.8,-1,0,0,0,-32.2,41.6
1528558177928,17.695661506245845,16.086965005678042,-22.358778625954198,-0.4580152671755725,3.404580152671756,-1.023193359375,0.62255859375,-0.57666015625,-27.926295042356582,50.329014920423056,0,17.6,17.6,0,-3,-0.8,-1,0,0,0,-32.2,41.6
1528558178028,17.695661506245845,16.086965005678042,-0.9923664122137404,15.511450381679388,-0.7251908396946565,-0.81591796875,0.953857421875,1.017578125,-36.17874734389071,30.327421870591735,0,17.6,17.6,0,-3,-0.8,-1,0,0,0,-32.2,41.6
1528558178129,17.695661506245845,16.086965005678042,-26.99236641221374,19.129770992366414,0.4122137404580153,0.760986328125,-0.250732421875,-1.39990234375,8.942723439244864,-28.150556130615083,0,17.6,17.6,0,-3,-0.8,-1,0,0,0,-32.2,41.6
1528558178229,16.086965005678042,16.086965005678042,-15.007633587786259,-4.8396946564885495,-0.6946564885496184,-0.984375,1.06982421875,0.95703125,-37.92693581697879,34.44133767793179,0,17.6,17.6,0,-3,-0.8,-1,0,0,0,-32.2,41.6
1528558178329,16.086965005678042,16.086965005678042,-0.15267175572519084,-2.0381679389312977,-5.480916030534351,-0.380126953125,0.769775390625,-0.505859375,-50.57941454432629,22.425084393528824,0,17.6,17.6,0,-3,-0.8,-1,0,0,0,-32.2,41.6
1528558178429,16.086965005678042,16.086965005678042,0.7633587786259542,-3.519083969465649,-6.977099236641221,-0.9990234375,0.324462890625,0.10888671875,-17.893605942818542,71.08952534488665,0,17.6,17.6,0,-3,-0.8,-1,0,0,0,-32.2,41.6
1528558178530,16.086965005678042,16.086965005678042,-24.709923664122137,18.33587786259542,4.351145038167939,-0.667236328125,0.46142578125,-0.240234375,-33.05042171733109,52.057878544375114,0,17.6,17.6,0,-3,-0.8,-1,0,0,0,-32.2,41.6
1528558178630,16.086965005678042,16.086965005678042,-0.16793893129770993,0.5725190839694656,0.8625954198473282,-0.726318359375,0.757568359375,-0.1650390625,-45.48566435988202,43.1303478747288,0,17.6,17.6,0,-3,-0.8,-1,0,0,0,-32.2,41.6
1528558178730,16.086965005678042,16.086965005678042,8.916030534351146,-8.641221374045802,-3,-0.734375,0.594482421875,-0.357421875,-36.0499825922813,46.63326157642693,0,17.6,17.6,0,-3,-0.8,-1,0,0,0,-32.2,41.6
1528558178830,16.086965005678042,16.086965005678042,-18.954198473282442,-0.6641221374045801,2.519083969465649,-0.716796875,0.707275390625,-0.22021484375,-43.325955151168536,44.057906940004095,0,17.2,16,0,-3.4,-0.4,-1,0,0,0,-31.2,40.6
1528558178930,16.086965005678042,16.086965005678042,13.84732824427481,7.656488549618321,-1.8854961832061068,-1.11376953125,0.67529296875,1.03564453125,-23.942076511736268,42.014025110225965,0,17.2,16,0,-3.4,-0.4,-1,0,0,0,-31.2,40.6
1528558179030,16.086965005678042,16.086965005678042,-9.198473282442748,-16.015267175572518,6.587786259541985,-2,1.99993896484375,-0.24267578125,-44.78977521602861,44.791511039277566,0,17.2,16,0,-3.4,-0.4,-1,0,0,0,-31.2,40.6
1528558179130,16.086965005678042,16.086965005678042,-25.984732824427482,-2.7251908396946565,-0.17557251908396945,-0.9560546875,0.939453125,0.73974609375,-37.852935820932366,38.6440833499397,0,17.2,16,0,-3.4,-0.4,-1,0,0,0,-31.2,40.6
1528558179230,16.086965005678042,16.086965005678042,-8.145038167938932,-3.404580152671756,-8.129770992366412,-0.620361328125,0.522216796875,-0.565185546875,-31.89267091734995,38.874977444857365,0,17.2,16,0,-3.4,-0.4,-1,0,0,0,-31.2,40.6
1528558179330,16.086965005678042,16.086965005678042,-1.618320610687023,7.427480916030534,-4.809160305343512,-1.092041015625,0.5751953125,0.706787109375,-23.854203398491713,50.15644477702526,0,17.2,16,0,-3.4,-0.4,-1,0,0,0,-31.2,40.6
1528558179430,16.086965005678042,16.086965005678042,-28.38167938931298,3.7709923664122136,-4,-0.383056640625,0.79150390625,-1.43408203125,-28.067841045223837,13.162375515363859,0,17.2,16,0,-3.4,-0.4,-1,0,0,0,-31.2,40.6
1528558179530,16.086965005678042,16.086965005678042,-3.3893129770992365,10.511450381679388,-1.2061068702290076,-1.114013671875,0.6455078125,1.364990234375,-20.12153243129537,36.41965424008858,0,17.2,16,0,-3.4,-0.4,-1,0,0,0,-31.2,40.6
1528558179630,16.086965005678042,16.086965005678042,-30.15267175572519,1.5419847328244274,-1.8473282442748091,-1.412353515625,1.233642578125,-1.2880859375,-32.837091788179606,38.374967488744325,0,17.2,16,0,-3.4,-0.4,-1,0,0,0,-31.2,40.6
1528558179730,16.086965005678042,16.086965005678042,21.80916030534351,-3.145038167938931,-5.129770992366412,-0.70703125,0.633056640625,0.295166015625,-39.565613012411184,45.348312821474046,0,17.2,16,0,-3.4,-0.4,-1,0,0,0,-31.2,40.6
1528558179830,16.086965005678042,16.086965005678042,1.1984732824427482,-14.923664122137405,-5.847328244274809,-0.94140625,0.668701171875,-0.662109375,-30.157041198734095,45.0112477887455,0,16.6,16,0,-4.6,0.4,-1,-0.2,0,0,-31.8,39.6
1528558179930,16.086965005678042,16.086965005678042,0.07633587786259542,13.297709923664122,-2.4580152671755724,-0.501708984375,0.326904296875,0.317138671875,-28.844704963155124,47.76632682043856,0,16.6,16,0,-4.6,0.4,-1,-0.2,0,0,-31.8,39.6
1528558180031,16.086965005678042,16.086965005678042,-22.00763358778626,-14.633587786259541,1.6641221374045803,-0.054443359375,0.879150390625,0.0556640625,-84.93877006411176,3.5365805607766956,0,16.6,16,0,-4.6,0.4,-1,-0.2,0,0,-31.8,39.6
1528558180131,16.086965005678042,16.086965005678042,18.954198473282442,5.076335877862595,-3.2977099236641223,-0.865966796875,0.446533203125,0.92822265625,-19.379531801272265,40.054072241509175,0,16.6,16,0,-4.6,0.4,-1,-0.2,0,0,-31.8,39.6
1528558180231,16.086965005678042,16.086965005678042,-52.770992366412216,-42.82442748091603,-4.412213740458015,-1.98974609375,-0.060302734375,0.537841796875,1.675810649615867,74.78365001957704,0,16.6,16,0,-4.6,0.4,-1,-0.2,0,0,-31.8,39.6
1528558180331,16.086965005678042,16.086965005678042,2.8702290076335877,21.38167938931298,-10.488549618320612,-0.036376953125,0.169677734375,-0.0908203125,-60.03264795174402,10.703516860873638,0,16.6,16,0,-4.6,0.4,-1,-0.2,0,0,-31.8,39.6
1528558180431,16.086965005678042,16.086965005678042,-12.213740458015268,-30.198473282442748,-7.183206106870229,-0.953857421875,0.685546875,-0.43798828125,-33.15037669496419,49.540147112675605,0,16.6,16,0,-4.6,0.4,-1,-0.2,0,0,-31.8,39.6
1528558180531,16.086965005678042,16.086965005678042,-12.320610687022901,11.465648854961833,2.3282442748091605,-0.7607421875,0.389892578125,-0.52490234375,-22.872171850401973,49.3206587038439,0,16.6,16,0,-4.6,0.4,-1,-0.2,0,0,-31.8,39.6
1528558180631,16.086965005678042,16.086965005678042,4.030534351145038,-9.541984732824428,3.50381679389313,-0.892822265625,0.681396484375,-0.07080078125,-37.264075825327645,52.50087724210368,0,16.6,16,0,-4.6,0.4,-1,-0.2,0,0,-31.8,39.6
1528558180731,16.086965005678042,16.086965005678042,-1.786259541984733,2.3206106870229006,-8.679389312977099,-0.510986328125,0.7333984375,-0.129638671875,-54.291010236967054,34.45406896106366,0,16.6,16,0,-4.6,0.4,-1,-0.2,0,0,-31.8,39.6
1528558180831,16.086965005678042,16.086965005678042,-51.038167938931295,34.89312977099237,2.9236641221374047,-1.040771484375,0.176513671875,-0.47265625,-8.778316908522607,64.13703466576374,0,16.4,16,0,-5.2,-0.6,-1.6,-0.2,0,0,-32.4,38.6
1528558180932,16.086965005678042,16.086965005678042,76.16030534351145,-63.603053435114504,14.541984732824428,-0.237060546875,1.2353515625,0.060546875,-78.79713255761439,10.850132086326912,0,16.4,16,0,-5.2,-0.6,-1.6,-0.2,0,0,-32.4,38.6
1528558181032,16.086965005678042,16.086965005678042,-88.65648854961832,81.54961832061069,-21.267175572519083,-1.57275390625,-1.19970703125,-0.788818359375,34.2881623102196,47.60632357520901,0,16.4,16,0,-5.2,-0.6,-1.6,-0.2,0,0,-32.4,38.6
1528558181132,16.086965005678042,16.086965005678042,59.274809160305345,-32.47328244274809,-13.412213740458014,0.626220703125,1.99993896484375,0.120361328125,-72.31506199418361,-17.35686382579786,0,16.4,16,0,-5.2,-0.6,-1.6,-0.2,0,0,-32.4,38.6
1528558181232,16.086965005678042,16.086965005678042,-7.366412213740458,-21.419847328244273,9.259541984732824,-2,-0.9990234375,-0.51904296875,25.80353378762,60.62457115434301,0,16.4,16,0,-5.2,-0.6,-1.6,-0.2,0,0,-32.4,38.6
1528558181333,16.086965005678042,16.086965005678042,-120.16030534351145,93.99236641221374,-13.282442748091603,-0.63671875,0.531982421875,-0.64892578125,-30.334300644547543,37.191231306029735,0,16.4,16,0,-5.2,-0.6,-1.6,-0.2,0,0,-32.4,38.6
1528558181433,16.086965005678042,16.086965005678042,91.80916030534351,-78.68702290076335,12.648854961832061,0.6328125,1.99993896484375,-0.438232421875,-68.94920117124754,-17.175470299423456,0,16.4,16,0,-5.2,-0.6,-1.6,-0.2,0,0,-32.4,38.6
1528558181534,16.086965005678042,16.086965005678042,-4.488549618320611,12.32824427480916,4.526717557251908,-2,-1.419189453125,-0.8515625,33.13964442397878,50.39104957204793,0,16.4,16,0,-5.2,-0.6,-1.6,-0.2,0,0,-32.4,38.6
1528558181634,16.086965005678042,16.086965005678042,-66.68702290076335,67.83969465648855,-15.068702290076336,-0.199951171875,0.914794921875,-0.2138671875,-72.25278314680276,12.015307711258947,0,16.4,16,0,-5.2,-0.6,-1.6,-0.2,0,0,-32.4,38.6
1528558181734,16.086965005678042,16.086965005678042,124.86259541984732,-97.49618320610686,10.213740458015268,0.489013671875,1.64306640625,-0.439208984375,-68.19648322286656,-16.041382627466785,0,16.4,16,0,-5.2,-0.6,-1.6,-0.2,0,0,-32.4,38.6
1528558181835,16.086965005678042,16.086965005678042,-78.34351145038168,40.00763358778626,11.885496183206106,-2,-1.505615234375,-0.2783203125,36.70904173381636,52.56371168077525,0,16.2,16,0,-5,-0.6,-1.4,-0.2,0,0,-31.8,36.6
1528558181935,16.086965005678042,16.086965005678042,-35.16793893129771,12.488549618320612,-21.480916030534353,0.348388671875,1.99993896484375,0.130859375,-79.45880434529434,-9.861074192696694,0,16.2,16,0,-5,-0.6,-1.4,-0.2,0,0,-31.8,36.6
1528558182035,16.086965005678042,16.086965005678042,83.94656488549619,-62.19083969465649,12.053435114503817,-1.33935546875,0.10302734375,-0.340576171875,-4.263547796104647,75.12223439049941,0,16.2,16,0,-5,-0.6,-1.4,-0.2,0,0,-31.8,36.6
1528558182135,16.086965005678042,16.086965005678042,-133.73282442748092,112.77099236641222,-10.32824427480916,-0.8603515625,0.2353515625,-0.4228515625,-13.793502952871162,60.64285415847593,0,16.2,16,0,-5,-0.6,-1.4,-0.2,0,0,-31.8,36.6
1528558182235,16.086965005678042,16.086965005678042,93.59541984732824,-66.79389312977099,-1.2595419847328244,0.5458984375,1.997314453125,-0.380859375,-71.56878802970603,-15.028303467373618,0,16.2,16,0,-5,-0.6,-1.4,-0.2,0,0,-31.8,36.6
1528558182336,16.086965005678042,16.086965005678042,-46.69465648854962,-15.435114503816793,11.091603053435115,-1.990966796875,-1.05615234375,-1.139892578125,24.719440211497496,52.02765388468565,0,16.2,16,0,-5,-0.6,-1.4,-0.2,0,0,-31.8,36.6
1528558182436,16.086965005678042,16.086965005678042,-45.045801526717554,44.00763358778626,-20.290076335877863,-0.09375,1.487548828125,-0.194580078125,-81.73857446463765,3.575809006210837,0,16.2,16,0,-5,-0.6,-1.4,-0.2,0,0,-31.8,36.6
1528558182536,16.086965005678042,16.086965005678042,97.44274809160305,-67.41984732824427,14.969465648854962,-1.02783203125,0.238525390625,-0.165771484375,-12.904099355945347,74.21931372035922,0,16.2,16,0,-5,-0.6,-1.4,-0.2,0,0,-31.8,36.6
1528558182636,16.086965005678042,16.086965005678042,-111.89312977099236,99.49618320610686,-13.923664122137405,-1.1572265625,0.27685546875,0.2685546875,-13.118483068752386,71.56657981933779,0,16.2,16,0,-5,-0.6,-1.4,-0.2,0,0,-31.8,36.6
1528558182736,16.086965005678042,16.086965005678042,99.22137404580153,-66.58778625954199,-3.6030534351145036,0.3349609375,1.9794921875,-0.4150390625,-74.920603693225,-9.403652940020152,0,16.2,16,0,-5,-0.6,-1.4,-0.2,0,0,-31.8,36.6
1528558182836,16.086965005678042,16.086965005678042,-68.69465648854961,33.06106870229008,8.801526717557252,-2,-0.887451171875,-0.644775390625,22.89536769394057,61.25627674647788,0,16,16,0,-5.6,0,-1.4,-0.2,0,0,-31.6,34.6
1528558182936,16.086965005678042,16.086965005678042,-46.63358778625954,35.44274809160305,-11.34351145038168,-0.069091796875,1.99993896484375,-0.034912109375,-87.78336434906093,1.9783065212927546,0,16,16,0,-5.6,0,-1.4,-0.2,0,0,-31.6,34.6
1528558183036,16.086965005678042,16.086965005678042,108.13740458015268,-78.30534351145039,6.320610687022901,-0.869873046875,0.345703125,-0.07763671875,-21.595861070601668,67.83812531436989,0,16,16,0,-5.6,0,-1.4,-0.2,0,0,-31.6,34.6
1528558183136,16.086965005678042,16.086965005678042,-114.0381679389313,86.7557251908397,-7.694656488549619,-1.375,-0.635986328125,-0.2255859375,24.53354469125408,63.859561553690796,0,16,16,0,-5.6,0,-1.4,-0.2,0,0,-31.6,34.6
1528558183236,16.086965005678042,16.086965005678042,64.17557251908397,-49.541984732824424,-7.473282442748092,0.923095703125,1.99993896484375,-0.160400390625,-64.89793094668097,-24.706429387402714,0,16,16,0,-5.6,0,-1.4,-0.2,0,0,-31.6,34.6
1528558183336,16.086965005678042,16.086965005678042,-2.267175572519084,-8.15267175572519,0.916030534351145,-2,-1.2060546875,-0.55322265625,30.165245561806074,56.438018043576015,0,16,16,0,-5.6,0,-1.4,-0.2,0,0,-31.6,34.6
1528558183436,16.086965005678042,16.086965005678042,-72.1526717557252,58.595419847328245,-15.229007633587786,-0.322998046875,1.99993896484375,0.263916015625,-78.21923432356633,9.096748403619205,0,16,16,0,-5.6,0,-1.4,-0.2,0,0,-31.6,34.6
1528558183536,16.086965005678042,16.086965005678042,86.79389312977099,-75.25190839694656,13.083969465648854,-0.67529296875,0.642822265625,-0.285888671875,-41.23767785973417,43.82684700417357,0,16,16,0,-5.6,0,-1.4,-0.2,0,0,-31.6,34.6
1528558183636,16.086965005678042,16.086965005678042,-75.08396946564885,83.89312977099236,-8.564885496183207,-1.5908203125,-0.864013671875,0.1337890625,28.42287264829413,61.20692045899276,0,16,16,0,-5.6,0,-1.4,-0.2,0,0,-31.6,34.6
1528558183736,16.086965005678042,16.086965005678042,35.61068702290076,-61.534351145038165,3.633587786259542,0.034423828125,1.67041015625,-0.630859375,-69.2819190901337,-1.1044640082625745,0,16,16,0,-5.6,0,-1.4,-0.2,0,0,-31.6,34.6
1528558183836,16.086965005678042,16.086965005678042,-28.6793893129771,27.52671755725191,8.396946564885496,-2,-0.91845703125,-0.41552734375,24.209960880562164,63.250056883112144,0,16,16,0,-6,0,-1.4,-0.2,0,0,-30.4,34
1528558183936,16.086965005678042,16.086965005678042,-29.541984732824428,6.33587786259542,-4.099236641221374,-0.2734375,1.99993896484375,0.050048828125,-82.08691174405264,7.782968001164482,0,16,16,0,-6,0,-1.4,-0.2,0,0,-30.4,34
1528558184036,16.086965005678042,16.086965005678042,53.62595419847328,-42.69465648854962,7.770992366412214,-1.16015625,-0.572509765625,-0.177001953125,26.004578625902177,62.682616199517184,0,16,16,0,-6,0,-1.4,-0.2,0,0,-30.4,34
1528558184136,16.086965005678042,16.086965005678042,-66.35114503816794,56.229007633587784,-26.3206106870229,-0.384765625,1.1494140625,-0.11962890625,-70.68158671067084,18.415226639501824,0,16,16,0,-6,0,-1.4,-0.2,0,0,-30.4,34
1528558184236,16.086965005678042,16.086965005678042,112.91603053435115,-80.22900763358778,10.045801526717558,-0.50390625,0.1552734375,-0.61279296875,-11.073595238337537,38.55902926719425,0,16,16,0,-6,0,-1.4,-0.2,0,0,-30.4,34
1528558184337,16.086965005678042,16.086965005678042,-119.02290076335878,93.16030534351145,-6.175572519083969,-1.23876953125,-0.310302734375,0.208740234375,13.874915419225564,73.20116987417558,0,16,16,0,-6,0,-1.4,-0.2,0,0,-30.4,34
1528558184437,16.086965005678042,16.086965005678042,71.64885496183206,-56.31297709923664,-2.4427480916030535,0.4541015625,1.99993896484375,-0.28369140625,-75.01198948857316,-12.669871602170097,0,16,16,0,-6,0,-1.4,-0.2,0,0,-30.4,34
1528558184537,16.086965005678042,16.086965005678042,-49.32824427480916,31.229007633587788,7.206106870229007,-1.915283203125,-0.9462890625,0.01708984375,26.29181242282755,63.703571554340925,0,16,16,0,-6,0,-1.4,-0.2,0,0,-30.4,34
1528558184637,16.086965005678042,16.086965005678042,-36.274809160305345,-17.38167938931298,-1.5572519083969465,0.01708984375,1.99993896484375,0.108154296875,-86.86619834001301,-0.48887667745685887,0,16,16,0,-6,0,-1.4,-0.2,0,0,-30.4,34
1528558184738,16.086965005678042,16.086965005678042,78,-40.6793893129771,11.580152671755725,-2,-0.8896484375,-0.340087890625,23.678862436488004,64.53537212801106,0,16,16,0,-6,0,-1.4,-0.2,0,0,-30.4,34
1528558184838,16.086965005678042,16.086965005678042,-51.32824427480916,44.229007633587784,-11.404580152671755,-0.397705078125,1.893310546875,0.028564453125,-78.10734713364486,11.861651720431594,0,16,16,0,-4.4,-0.4,-1.2,0,0,0,-28.2,33.6
1528558184938,16.086965005678042,16.086965005678042,77.09160305343511,-57.3206106870229,11.030534351145038,-0.560546875,0.463623046875,-0.1552734375,-38.557492440107616,48.90362781830519,0,16,16,0,-4.4,-0.4,-1.2,0,0,0,-28.2,33.6
1528558185038,16.086965005678042,16.086965005678042,-109.31297709923665,100.14503816793894,-13.885496183206106,-1.21533203125,0.108154296875,-0.13818359375,-5.053057201385299,81.78408355037809,0,16,16,0,-4.4,-0.4,-1.2,0,0,0,-28.2,33.6
1528558185138,16.086965005678042,16.086965005678042,84.6412213740458,-69.46564885496183,-1.5419847328244274,0.514404296875,1.81982421875,-0.3701171875,-70.80033231790931,-15.482533188317323,0,16,16,0,-4.4,-0.4,-1.2,0,0,0,-28.2,33.6
1528558185239,16.086965005678042,16.086965005678042,-102.74809160305344,66.46564885496183,-3.4732824427480917,-1.890625,-1.325439453125,-0.31640625,34.66164282245751,54.21753911427658,0,16,16,0,-4.4,-0.4,-1.2,0,0,0,-28.2,33.6
1528558185339,16.086965005678042,16.086965005678042,53.7557251908397,-55.38931297709924,-5.603053435114504,0.50146484375,1.99993896484375,-0.485595703125,-70.75925814238849,-13.693876213081527,0,16,16,0,-4.4,-0.4,-1.2,0,0,0,-28.2,33.6
1528558185439,16.086965005678042,16.086965005678042,-30.0381679389313,-5.9465648854961835,13.641221374045802,-1.98876953125,-0.62060546875,-0.465576171875,16.900890687052982,68.68896608733989,0,16,16,0,-4.4,-0.4,-1.2,0,0,0,-28.2,33.6
1528558185539,16.086965005678042,16.086965005678042,-72.3969465648855,61.83969465648855,-17.87786259541985,-0.056396484375,1.587890625,0.318115234375,-78.49945823697057,1.9944982779053588,0,16,16,0,-4.4,-0.4,-1.2,0,0,0,-28.2,33.6
1528558185639,16.086965005678042,16.086965005678042,102.90076335877863,-78.25190839694656,12.618320610687023,-0.80078125,0.243408203125,-0.25244140625,-16.16685389142957,66.35050685787176,0,16,16,0,-4.4,-0.4,-1.2,0,0,0,-28.2,33.6
1528558185739,16.086965005678042,16.086965005678042,-94.8473282442748,85.06870229007633,-4.038167938931298,-1.292724609375,0.077880859375,0.058349609375,-3.4441484352335046,85.69497515682978,0,16,16,0,-4.4,-0.4,-1.2,0,0,0,-28.2,33.6
1528558185839,16.086965005678042,16.086965005678042,63.83969465648855,-51.908396946564885,0.015267175572519083,0.179931640625,1.877197265625,-0.31103515625,-79.16361064768611,-5.401938790581256,0,16,16,0,-5.8,2.4,-1,0,0,0,-27,33.4
1528558185939,16.086965005678042,16.086965005678042,-79.19083969465649,55.83206106870229,-11.946564885496183,-1.288330078125,-0.263427734375,-0.01904296875,11.554875959466488,78.41455489450057,0,16,16,0,-5.8,2.4,-1,0,0,0,-27,33.4
1528558186039,16.086965005678042,16.086965005678042,83.77862595419847,-65.92366412213741,6.740458015267175,-0.307373046875,1.15478515625,-0.270751953125,-70.46982469097841,14.52836255260996,0,16,16,0,-5.8,2.4,-1,0,0,0,-27,33.4
1528558186140,16.086965005678042,16.086965005678042,-44.9236641221374,34.717557251908396,-13.923664122137405,-0.66357421875,0.6728515625,0.035400390625,-45.357030877479204,44.562673660120815,0,16,16,0,-5.8,2.4,-1,0,0,0,-27,33.4
1528558186240,16.086965005678042,16.086965005678042,-90.61068702290076,56.6412213740458,18.427480916030536,-1.49951171875,-0.066162109375,-0.298583984375,2.4778092058278234,78.4725818278047,0,16,16,0,-5.8,2.4,-1,0,0,0,-27,33.4
1528558186341,16.086965005678042,16.086965005678042,46.25954198473283,-41.12977099236641,3.9923664122137406,-0.44677734375,1.13330078125,0.08154296875,-68.16210212072728,21.465253607658,0,16,16,0,-5.8,2.4,-1,0,0,0,-27,33.4
1528558186441,16.086965005678042,16.086965005678042,64.27480916030534,-40.732824427480914,-27.213740458015266,-0.523193359375,0.719482421875,-0.432373046875,-46.66937181832749,31.93489296847155,0,16,16,0,-5.8,2.4,-1,0,0,0,-27,33.4
1528558186542,16.086965005678042,16.086965005678042,-60.16030534351145,38.98473282442748,2.50381679389313,-1.300048828125,-0.1279296875,0.187255859375,5.562981213537727,80.10476154332162,0,16,16,0,-5.8,2.4,-1,0,0,0,-27,33.4
1528558186643,16.086965005678042,16.086965005678042,-65.2442748091603,36.54961832061068,29.870229007633586,-0.653564453125,0.65966796875,-0.22607421875,-43.647916922019846,43.14434517811361,0,16,16,0,-5.8,2.4,-1,0,0,0,-27,33.4
1528558186743,16.086965005678042,16.086965005678042,57.29770992366412,-39.17557251908397,-8.320610687022901,-0.2578125,1.4189453125,0.072509765625,-79.31159352794214,10.284773403596828,0,16,16,0,-5.8,2.4,-1,0,0,0,-27,33.4
1528558186843,16.086965005678042,16.086965005678042,61.44274809160305,-41.87022900763359,-25.30534351145038,-0.8974609375,0.3720703125,-0.3916015625,-20.805921284200036,58.956621087972024,0,16,16,0,-6.4,2.2,-1,0,0,0,-29.2,36.6
1528558186944,16.086965005678042,16.086965005678042,-37.6793893129771,26.770992366412212,-5.709923664122138,-1.04150390625,0.26123046875,-0.231689453125,-13.757409380046285,71.46586687954333,0,16,16,0,-6.4,2.2,-1,0,0,0,-29.2,36.6
1528558187044,16.086965005678042,16.086965005678042,-65.13740458015268,40.152671755725194,16.541984732824428,-0.818115234375,0.459228515625,-0.167236328125,-28.80869858322454,59.14643128602384,0,16,16,0,-6.4,2.2,-1,0,0,0,-29.2,36.6
1528558187144,16.086965005678042,16.086965005678042,3,-5.824427480916031,-0.40458015267175573,-0.48193359375,1.031982421875,-0.048828125,-64.85517212615467,25.00792268582866,0,16,16,0,-6.4,2.2,-1,0,0,0,-29.2,36.6
1528558187244,16.086965005678042,16.086965005678042,49.908396946564885,-33.717557251908396,-14.885496183206106,-0.684814453125,0.698974609375,-0.08251953125,-45.37982186492351,44.21551222085889,0,16,16,0,-6.4,2.2,-1,0,0,0,-29.2,36.6
1528558187347,16.086965005678042,16.086965005678042,2.83206106870229,-1.3969465648854962,-2.7557251908396947,-0.9306640625,0.3564453125,-0.346435546875,-19.745044796226807,61.89358632514169,0,16,16,0,-6.4,2.2,-1,0,0,0,-29.2,36.6
1528558187445,16.086965005678042,16.086965005678042,-25.541984732824428,13.236641221374045,7.3816793893129775,-0.685302734375,0.705078125,-0.073974609375,-45.6489797629069,44.02840319087161,0,16,16,0,-6.4,2.2,-1,0,0,0,-29.2,36.6
1528558187572,16.086965005678042,16.086965005678042,102.12977099236642,-71.35114503816794,-18.557251908396946,-0.61767578125,0.64013671875,0.022216796875,-46.00452252434415,43.95973776094603,0,16,16,0,-6.4,2.2,-1,0,0,0,-29.2,36.6
1528558187672,16.086965005678042,16.086965005678042,-83.69465648854961,66.7175572519084,-22.045801526717558,-0.986572265625,0.281005859375,-0.427978515625,-14.64412172508774,62.572735890809845,0,16,16,0,-6.4,2.2,-1,0,0,0,-29.2,36.6
1528558187774,16.086965005678042,16.086965005678042,46.35114503816794,-46.51908396946565,32.916030534351144,-0.6162109375,0.53515625,-0.083740234375,-40.71373819380725,48.68353398030999,0,16,16,0,-5,1.6,-2,0,0,0,-30,40
1528558187874,16.086965005678042,16.086965005678042,-73.20610687022901,70.64885496183206,-25.83206106870229,-0.6943359375,0.245849609375,0.091796875,-19.34231162856284,69.29561181426357,0,16,16,0,-5,1.6,-2,0,0,0,-30,40
1528558187975,16.086965005678042,16.086965005678042,56.86259541984733,-49.33587786259542,9.80916030534351,-0.410888671875,0.944091796875,-0.480224609375,-56.19990020301892,21.20227288451626,0,16,16,0,-5,1.6,-2,0,0,0,-30,40
1528558188075,16.086965005678042,16.086965005678042,-13.786259541984732,15.442748091603054,-4.145038167938932,-0.8564453125,0.6083984375,-0.03125,-35.37108961749571,54.575272172679625,0,16,16,0,-5,1.6,-2,0,0,0,-30,40
1528558188175,16.086965005678042,16.086965005678042,29.786259541984734,-21.893129770992367,-7.694656488549619,-0.811767578125,0.54541015625,-0.210205078125,-33.04105166782055,54.24411950447004,0,16,16,0,-5,1.6,-2,0,0,0,-30,40
1528558188275,16.086965005678042,16.086965005678042,-12.053435114503817,4.679389312977099,4.580152671755725,-1.033935546875,0.31982421875,-0.23486328125,-16.78555099312464,69.00449796709806,0,16,16,0,-5,1.6,-2,0,0,0,-30,40
1528558188375,16.086965005678042,16.086965005678042,-28.083969465648856,14.351145038167939,12.01526717557252,-0.72265625,0.656494140625,0.03857421875,-42.21288540471584,47.69740460284836,0,16,16,0,-5,1.6,-2,0,0,0,-30,40
1528558188475,16.086965005678042,16.086965005678042,-3.5114503816793894,-5.0458015267175576,3.595419847328244,-0.493896484375,0.61083984375,0.041748046875,-50.94286194316102,38.89212382052443,0,16,16,0,-5,1.6,-2,0,0,0,-30,40
1528558188575,16.086965005678042,16.086965005678042,16.251908396946565,-10.297709923664122,-6.511450381679389,-0.74853515625,0.50537109375,-0.128173828125,-33.6422307840506,55.14191316875745,0,16,16,0,-5,1.6,-2,0,0,0,-30,40
1528558188676,16.086965005678042,16.086965005678042,-10.083969465648854,6.984732824427481,1.2900763358778626,-0.736083984375,0.530517578125,-0.208251953125,-34.741642921508756,52.25044993132974,0,16,16,0,-5,1.6,-2,0,0,0,-30,40
1528558188776,16.086965005678042,16.086965005678042,-12.351145038167939,2.549618320610687,-1.1908396946564885,-0.6103515625,0.8173828125,-0.30908203125,-50.07065859371423,34.93228676808494,0,16,16,0,-3.4,0.8,-1.4,0,0,0,-32.2,43.6
1528558188876,16.086965005678042,16.086965005678042,3.8931297709923665,-4.923664122137405,-5.893129770992366,-0.91552734375,0.57177734375,0.219482421875,-31.271356928343245,56.218869135315956,0,16,16,0,-3.4,0.8,-1.4,0,0,0,-32.2,43.6
1528558188975,16.086965005678042,16.086965005678042,-15.17557251908397,13.49618320610687,-1.7404580152671756,0.291259765625,0.0888671875,-0.682861328125,-6.826132186757858,-22.926503777861125,0,16,16,0,-3.4,0.8,-1.4,0,0,0,-32.2,43.6
1528558189090,16.086965005678042,16.086965005678042,14.549618320610687,-18.83206106870229,0.366412213740458,-0.929931640625,0.77783203125,0.830078125,-31.9643598825497,39.265180001101726,0,16,16,0,-3.4,0.8,-1.4,0,0,0,-32.2,43.6
1528558189190,16.086965005678042,16.086965005678042,-0.16030534351145037,-1.3893129770992367,-1.1221374045801527,-0.62109375,0.465576171875,-0.5966796875,-28.394328199589868,39.37416291931108,0,16,16,0,-3.4,0.8,-1.4,0,0,0,-32.2,43.6
1528558189290,16.086965005678042,16.086965005678042,-7.885496183206107,0.015267175572519083,5.6106870229007635,-0.753173828125,0.489013671875,-0.1396484375,-32.55375678248027,55.97174551307555,0,16,16,0,-3.4,0.8,-1.4,0,0,0,-32.2,43.6
1528558189390,16.086965005678042,16.086965005678042,-12.099236641221374,7.213740458015267,1.6946564885496183,-0.628173828125,0.6884765625,-0.0908203125,-47.327101306647656,42.1316992519769,0,16,16,0,-3.4,0.8,-1.4,0,0,0,-32.2,43.6
1528558189490,16.086965005678042,16.086965005678042,16.9618320610687,-10.145038167938932,-3.1297709923664123,-0.71484375,0.6494140625,-0.14697265625,-41.664500398777214,47.03281720327773,0,16,16,0,-3.4,0.8,-1.4,0,0,0,-32.2,43.6
1528558189590,16.086965005678042,16.086965005678042,0.5114503816793893,-0.3435114503816794,-0.7099236641221374,-0.8369140625,0.48583984375,-0.204833984375,-29.41736910540859,57.78913856532452,0,16,16,0,-3.4,0.8,-1.4,0,0,0,-32.2,43.6
1528558189691,16.086965005678042,16.086965005678042,-19.14503816793893,8.748091603053435,2.2519083969465647,-0.7216796875,0.583984375,-0.174072265625,-38.1900727733826,49.82273908739562,0,16,16,0,-3.4,0.8,-1.4,0,0,0,-32.2,43.6
1528558189792,16.086965005678042,16.086965005678042,0.5343511450381679,-2.885496183206107,-7.137404580152672,-0.619140625,0.696533203125,-0.13232421875,-47.730316891288226,41.12974080472956,0,16,16,0,-3.8,1.2,-1.4,0,0,0,-34.6,44
1528558189893,16.086965005678042,16.086965005678042,10.572519083969466,-8.15267175572519,-7.312977099236641,-0.775146484375,0.505615234375,0.006103515625,-33.11493278746735,56.88234434650406,0,16,16,0,-3.8,1.2,-1.4,0,0,0,-34.6,44
1528558189993,16.086965005678042,16.086965005678042,40.23664122137404,-27.33587786259542,-4.183206106870229,-0.785400390625,0.509033203125,-0.028564453125,-32.930772984416905,57.010825761171034,0,16,16,0,-3.8,1.2,-1.4,0,0,0,-34.6,44
1528558190094,16.086965005678042,16.086965005678042,18,-12.19083969465649,-12.961832061068701,-0.699462890625,0.809814453125,-0.309326171875,-46.63721022648574,38.8991334833056,0,16,16,0,-3.8,1.2,-1.4,0,0,0,-34.6,44
1528558190195,16.086965005678042,16.086965005678042,-114.55725190839695,72.38167938931298,18.85496183206107,-1.224365234375,-0.252685546875,-0.16552734375,11.558745113050708,76.14078660370805,0,16,16,0,-3.8,1.2,-1.4,0,0,0,-34.6,44
1528558190295,16.086965005678042,16.086965005678042,-54.50381679389313,26.580152671755727,25.69465648854962,-0.48291015625,0.944580078125,-0.0478515625,-62.80830420509762,27.04833215956398,0,16,16,0,-3.8,1.2,-1.4,0,0,0,-34.6,44
1528558190395,16.086965005678042,16.086965005678042,105.37404580152672,-76.33587786259542,-17.458015267175572,-0.302978515625,1.109619140625,0.109130859375,-73.81622607611556,15.202255402247248,0,16,16,0,-3.8,1.2,-1.4,0,0,0,-34.6,44
1528558190496,16.086965005678042,16.086965005678042,42.51908396946565,-23.61832061068702,-19.328244274809162,-0.997314453125,0.33056640625,-0.29052734375,-17.65256892538786,66.18926907841109,0,16,16,0,-3.8,1.2,-1.4,0,0,0,-34.6,44
1528558190596,16.086965005678042,16.086965005678042,-126.32824427480917,82.86259541984732,21.801526717557252,-1.25341796875,0.103515625,-0.23388671875,-4.641399352257335,78.46666146984238,0,16,16,0,-3.8,1.2,-1.4,0,0,0,-34.6,44
1528558190697,16.086965005678042,16.086965005678042,9.244274809160306,-13.98473282442748,8.770992366412214,-0.330078125,1.216552734375,0.0224609375,-74.78634384242616,15.177709226386252,0,16,16,0,-3.8,1.2,-1.4,0,0,0,-34.6,44
1528558190797,16.086965005678042,16.086965005678042,107.09923664122137,-72.21374045801527,-25.702290076335878,-0.55810546875,0.80810546875,0.0498046875,-55.263375515434774,34.57952506034985,0,16,16,0,-2.2,-0.4,-1,0,0,0,-36.2,45.6
1528558190897,16.086965005678042,16.086965005678042,-14.16793893129771,15.549618320610687,-10.099236641221374,-0.94873046875,0.132080078125,-0.24169921875,-7.6833012389316195,73.81103289065284,0,16,16,0,-2.2,-0.4,-1,0,0,0,-36.2,45.6
1528558190996,16.086965005678042,16.086965005678042,-121.98473282442748,73.25954198473282,26.435114503816795,-1.30712890625,0.115234375,-0.171630859375,-4.995420180112671,81.01290278729252,0,16,16,0,-2.2,-0.4,-1,0,0,0,-36.2,45.6
1528558191097,16.086965005678042,16.086965005678042,-24.908396946564885,6.396946564885496,12.732824427480915,-0.466064453125,1.00048828125,-0.111572265625,-64.4056118493741,24.842584664923823,0,16,16,0,-2.2,-0.4,-1,0,0,0,-36.2,45.6
1528558191196,16.086965005678042,16.086965005678042,105.01526717557252,-73.67175572519083,-19.587786259541986,-0.46923828125,1.07080078125,-0.08740234375,-65.97510398009337,23.593779899358232,0,16,16,0,-2.2,-0.4,-1,0,0,0,-36.2,45.6
1528558191297,16.086965005678042,16.086965005678042,6.282442748091603,-2.4732824427480917,-14.053435114503817,-0.801513671875,0.217529296875,-0.294189453125,-14.293624791279,65.46409355668641,0,16,16,0,-2.2,-0.4,-1,0,0,0,-36.2,45.6
1528558191397,16.086965005678042,16.086965005678042,-85.93893129770993,58.48854961832061,17.900763358778626,-0.935546875,0.189453125,-0.12353515625,-11.35193526394692,76.40933774330162,0,16,16,0,-2.2,-0.4,-1,0,0,0,-36.2,45.6
1528558191497,16.086965005678042,16.086965005678042,33.42748091603053,-32.54961832061068,3.8091603053435112,-0.2431640625,1.179443359375,-0.175537109375,-75.73343896290604,11.525860326957815,0,16,16,0,-2.2,-0.4,-1,0,0,0,-36.2,45.6
1528558191597,16.086965005678042,16.086965005678042,4.595419847328245,0.11450381679389313,-16.770992366412212,-0.846435546875,0.45263671875,0.175048828125,-27.639924661284958,60.17207631571443,0,16,16,0,-2.2,-0.4,-1,0,0,0,-36.2,45.6
1528558191697,16.086965005678042,16.086965005678042,-3.9083969465648853,8.145038167938932,2.4580152671755724,-0.821044921875,0.16064453125,-0.205322265625,-10.74765005542764,72.38427253500697,0,16,16,0,-2.2,-0.4,-1,0,0,0,-36.2,45.6
1528558191797,16.086965005678042,16.086965005678042,-32.86259541984733,15.83969465648855,3.732824427480916,-0.617431640625,0.711669921875,-0.609130859375,-39.36987425676607,33.389508581841014,0,16,16,0,-1.8,-0.4,-1.4,0,0,0,-34.6,48.2
1528558191896,16.086965005678042,16.086965005678042,14.091603053435115,-11.885496183206106,-4.778625954198473,-0.6767578125,0.582275390625,0.160400390625,-39.9359375847732,48.253068253959086,0,16,16,0,-1.8,-0.4,-1.4,0,0,0,-34.6,48.2
1528558191997,16.086965005678042,16.086965005678042,-2.427480916030534,9.381679389312977,0.8854961832061069,-0.736083984375,0.2119140625,0.09765625,-15.928384507202551,72.41177897566298,0,16,16,0,-1.8,-0.4,-1.4,0,0,0,-34.6,48.2
1528558192102,16.086965005678042,16.086965005678042,-28.19083969465649,14.01526717557252,4.938931297709924,-0.621826171875,0.618408203125,-0.697509765625,-33.496268201093976,33.70609671097574,0,16,16,0,-1.8,-0.4,-1.4,0,0,0,-34.6,48.2
1528558192197,16.086965005678042,16.086965005678042,-2.030534351145038,-5.083969465648855,1.6488549618320612,-0.638916015625,0.59765625,-0.015380859375,-43.08068414134108,46.90157299164839,0,16,16,0,-1.8,-0.4,-1.4,0,0,0,-34.6,48.2
1528558192298,16.086965005678042,16.086965005678042,66.10687022900764,-45.68702290076336,-13.473282442748092,-0.284423828125,0.78076171875,0.367431640625,-59.241917111900335,18.242955463453214,0,16,16,0,-1.8,-0.4,-1.4,0,0,0,-34.6,48.2
1528558192398,16.086965005678042,16.086965005678042,75.35114503816794,-48.045801526717554,-24.51145038167939,-0.829833984375,0.512451171875,-0.289306640625,-30.24703706560015,54.6576548142734,0,16,16,0,-1.8,-0.4,-1.4,0,0,0,-34.6,48.2
1528558192495,16.086965005678042,16.086965005678042,3.648854961832061,-2.435114503816794,-10.648854961832061,-0.91064453125,0.365966796875,-0.3017578125,-20.88075719296044,62.4861896219699,0,16,16,0,-1.8,-0.4,-1.4,0,0,0,-34.6,48.2
1528558192595,16.086965005678042,16.086965005678042,-76.99236641221374,47.412213740458014,9.351145038167939,-0.886474609375,0.2333984375,-0.2138671875,-14.356385865180627,70.34801706882038,0,16,16,0,-1.8,-0.4,-1.4,0,0,0,-34.6,48.2
1528558192695,16.086965005678042,16.086965005678042,-90.63358778625954,56.80916030534351,21.49618320610687,-0.916259765625,0.353515625,-0.14453125,-20.862462911768297,67.37242582232255,0,16,16,0,-1.8,-0.4,-1.4,0,0,0,-34.6,48.2
1528558192795,16.086965005678042,16.086965005678042,-94.37404580152672,59.969465648854964,26.412213740458014,-0.682861328125,0.58984375,0.055908203125,-40.725226846108775,49.053323238811544,0,16,16,0,-3.2,0.2,-0.2,0,0,0,-34.2,47.8
1528558192895,16.086965005678042,16.086965005678042,-52.954198473282446,30.717557251908396,16.106870229007633,-0.527587890625,0.844482421875,-0.18505859375,-56.49283737433834,31.394291331542778,0,16,16,0,-3.2,0.2,-0.2,0,0,0,-34.2,47.8
1528558192995,16.086965005678042,16.086965005678042,64.42748091603053,-47.541984732824424,-12.351145038167939,-0.366943359375,0.962158203125,-0.03515625,-69.03708170609572,20.862892040798993,0,16,16,0,-3.2,0.2,-0.2,0,0,0,-34.2,47.8
1528558193099,16.086965005678042,16.086965005678042,89.29770992366412,-64.35114503816794,-21.52671755725191,-0.797119140625,0.5458984375,-0.153564453125,-33.919801007254655,54.57119023535705,0,16,16,0,-3.2,0.2,-0.2,0,0,0,-34.2,47.8
1528558193199,16.086965005678042,16.086965005678042,52.213740458015266,-37.69465648854962,-15.603053435114504,-0.712890625,0.589111328125,-0.2275390625,-38.211314535842696,48.46329993399725,0,16,16,0,-3.2,0.2,-0.2,0,0,0,-34.2,47.8
1528558193298,16.086965005678042,16.086965005678042,28.763358778625953,-19.389312977099237,-13.32824427480916,-0.76318359375,0.59326171875,-0.04052734375,-37.82067102661332,52.075599586383774,0,16,16,0,-3.2,0.2,-0.2,0,0,0,-34.2,47.8
1528558193399,16.086965005678042,16.086965005678042,22.27480916030534,-15.351145038167939,-11.465648854961833,-0.822998046875,0.4990234375,-0.103759765625,-31.030527240336237,58.2293741538655,0,16,16,0,-3.2,0.2,-0.2,0,0,0,-34.2,47.8
1528558193499,16.086965005678042,16.086965005678042,1.5114503816793894,-0.6870229007633588,-10.01526717557252,-0.716552734375,0.55029296875,-0.290771484375,-35.43621122708582,49.022730299414214,0,16,16,0,-3.2,0.2,-0.2,0,0,0,-34.2,47.8
1528558193599,16.086965005678042,16.086965005678042,-65.5114503816794,41.94656488549618,2.6259541984732824,-0.9736328125,0.313720703125,-0.2978515625,-17.12517437925764,66.04405878665251,0,16,16,0,-3.2,0.2,-0.2,0,0,0,-34.2,47.8
1528558193699,16.086965005678042,16.086965005678042,-54,32.70992366412214,14.396946564885496,-0.690673828125,0.5166015625,-0.117431640625,-36.40451021881899,52.51003579593768,0,16,16,0,-3.2,0.2,-0.2,0,0,0,-34.2,47.8
1528558193799,16.086965005678042,16.086965005678042,48.19847328244275,-33.98473282442748,-8.091603053435115,-0.447509765625,1.0400390625,-0.018798828125,-66.70033205465589,23.277927167252244,0,16,16,0,-3.2,0.4,-1,0,0,0,-34.8,47.2
1528558193900,16.086965005678042,16.086965005678042,91.97709923664122,-61.51145038167939,-28.595419847328245,-0.777587890625,0.5185546875,-0.221923828125,-32.67085035305145,54.04359967176818,0,16,16,0,-3.2,0.4,-1,0,0,0,-34.8,47.2
1528558194000,16.086965005678042,16.086965005678042,-45.02290076335878,28.38167938931298,2.4885496183206106,-1.30810546875,-0.200927734375,0.081787109375,8.715744331480394,80.58379133209228,0,16,16,0,-3.2,0.4,-1,0,0,0,-34.8,47.2
1528558194099,16.086965005678042,16.086965005678042,-44.19847328244275,28.49618320610687,17.03053435114504,-0.413818359375,0.94775390625,0.0341796875,-66.3409359965869,23.57390247598454,0,16,16,0,-3.2,0.4,-1,0,0,0,-34.8,47.2
1528558194199,16.086965005678042,16.086965005678042,23.954198473282442,-17.091603053435115,-13.572519083969466,-0.580810546875,0.7607421875,-0.283203125,-49.65530779426982,35.58399060917298,0,16,16,0,-3.2,0.4,-1,0,0,0,-34.8,47.2
1528558194300,16.086965005678042,16.086965005678042,-38.63358778625954,18.801526717557252,11.625954198473282,-1.17578125,0.08984375,-0.220947265625,-4.294710397109462,78.53275914285462,0,16,16,0,-3.2,0.4,-1,0,0,0,-34.8,47.2
1528558194400,16.086965005678042,16.086965005678042,-17.27480916030534,8.374045801526718,11.221374045801527,-0.548095703125,0.963134765625,-0.01220703125,-60.35077996556523,29.64113469966806,0,16,16,0,-3.2,0.4,-1,0,0,0,-34.8,47.2
1528558194499,16.086965005678042,16.086965005678042,45.900763358778626,-31.549618320610687,-19.641221374045802,-0.537353515625,0.691162109375,-0.159912109375,-50.9524158351624,37.142273985290295,0,16,16,0,-3.2,0.4,-1,0,0,0,-34.8,47.2
1528558194600,16.086965005678042,16.086965005678042,-40.045801526717554,23.893129770992367,-0.5877862595419847,-1.247802734375,0.056396484375,-0.26123046875,-2.5329762253071175,77.91127950658557,0,16,16,0,-3.2,0.4,-1,0,0,0,-34.8,47.2
1528558194700,16.086965005678042,16.086965005678042,-75.46564885496183,48.81679389312977,20.35114503816794,-0.626708984375,0.545654296875,0.0927734375,-40.73767496951572,48.55031551546058,0,16,16,0,-3.2,0.4,-1,0,0,0,-34.8,47.2
1528558194801,16.086965005678042,16.086965005678042,26.18320610687023,-20.137404580152673,-6.2748091603053435,-0.385009765625,0.954345703125,-0.348388671875,-61.45042487021714,20.755005108108435,0,16,16,0,-3.6,0.6,-1,0,0,0,-35.4,49
1528558194901,16.086965005678042,16.086965005678042,-10.251908396946565,7.374045801526718,-4.32824427480916,-1.08056640625,0.143798828125,-0.15576171875,-7.503568723891151,78.90043749939974,0,16,16,0,-3.6,0.6,-1,0,0,0,-35.4,49
1528558195001,16.086965005678042,16.086965005678042,-31.49618320610687,17.061068702290076,14.770992366412214,-0.744873046875,0.665283203125,-0.0634765625,-41.66666141879655,48.101354258576194,0,16,16,0,-3.6,0.6,-1,0,0,0,-35.4,49
1528558195102,16.086965005678042,16.086965005678042,46.18320610687023,-31.00763358778626,-12.763358778625955,-0.458740234375,1.135009765625,-0.070068359375,-67.76229166039742,21.96939330896107,0,16,16,0,-3.6,0.6,-1,0,0,0,-35.4,49
1528558195201,14.478268505110236,0,27.244274809160306,-16.740458015267176,-18.96946564885496,-0.907958984375,0.15478515625,-0.281005859375,-9.249686622566912,70.5397876640684,0,16,16,0,-3.6,0.6,-1,0,0,0,-35.4,49
1528558195302,14.478268505110236,0,-81.94656488549619,51.49618320610687,19.793893129770993,-0.9140625,0.24462890625,-0.23779296875,-14.520919921883362,69.53278064810092,0,16,16,0,-3.6,0.6,-1,0,0,0,-35.4,49
1528558195402,14.478268505110236,0,7.854961832061068,-10.076335877862595,-2.312977099236641,-0.241455078125,1.395263671875,-0.103271484375,-79.34064047294933,9.791726328552732,0,16,16,0,-3.6,0.6,-1,0,0,0,-35.4,49
1528558195502,14.478268505110236,0,71.32824427480917,-47.54961832061068,-26.6793893129771,-0.82373046875,0.452880859375,-0.166259765625,-28.321321761504464,59.64374150131505,0,16,16,0,-3.6,0.6,-1,0,0,0,-35.4,49
1528558195602,14.478268505110236,0,-52.88549618320611,33.38931297709924,13.320610687022901,-1.347900390625,-0.045166015625,-0.23291015625,1.8911682817205935,80.01740476678214,0,16,16,0,-3.6,0.6,-1,0,0,0,-35.4,49
1528558195702,14.478268505110236,16.086965005678042,-55.25954198473283,30.938931297709924,20.954198473282442,-0.509765625,0.820068359375,-0.066650390625,-57.91622630464582,31.781140368834944,0,16,16,0,-3.6,0.6,-1,0,0,0,-35.4,49
1528558195803,14.478268505110236,16.086965005678042,67.13740458015268,-44.69465648854962,-19.519083969465647,-0.41259765625,1.019775390625,-0.0068359375,-67.96917762887912,22.027640937690375,0,15.8,14.4,0,-3.4,0.6,-1,0,0,0,-35,49.4
1528558195902,14.478268505110236,16.086965005678042,6.221374045801527,-5.755725190839694,-8.82442748091603,-1.1845703125,-0.208251953125,0.235595703125,9.783120000108138,75.13375165745155,0,15.8,14.4,0,-3.4,0.6,-1,0,0,0,-35,49.4
1528558196003,14.478268505110236,16.086965005678042,-79.45801526717557,47.79389312977099,26.33587786259542,-0.962890625,0.394775390625,-0.2099609375,-21.829919277475582,65.09129992959956,0,15.8,14.4,0,-3.4,0.6,-1,0,0,0,-35,49.4
1528558196103,14.478268505110236,16.086965005678042,13.366412213740459,-7.267175572519084,-1.1297709923664123,-0.221435546875,1.310302734375,0.212646484375,-76.81340773905161,9.470495080522241,0,15.8,14.4,0,-3.4,0.6,-1,0,0,0,-35,49.4
1528558196203,14.478268505110236,16.086965005678042,43.778625954198475,-26.14503816793893,-24.290076335877863,-0.70947265625,0.57177734375,-0.098876953125,-38.59701659709037,50.720942544334385,0,15.8,14.4,0,-3.4,0.6,-1,0,0,0,-35,49.4
1528558196304,14.478268505110236,16.086965005678042,-58.587786259541986,34.29007633587786,10.282442748091603,-1.37841796875,-0.207275390625,-0.365234375,8.270362102725937,73.05601760400394,0,15.8,14.4,0,-3.4,0.6,-1,0,0,0,-35,49.4
1528558196404,14.478268505110236,16.086965005678042,-24.389312977099237,8.870229007633588,16.053435114503817,-0.41943359375,1.08837890625,-0.036865234375,-68.85052522066758,21.06437618498826,0,15.8,14.4,0,-3.4,0.6,-1,0,0,0,-35,49.4
1528558196504,14.478268505110236,16.086965005678042,63.33587786259542,-40.847328244274806,-26.916030534351144,-0.49365234375,0.923828125,-0.02197265625,-61.85837550045152,28.1113156804017,0,15.8,14.4,0,-3.4,0.6,-1,0,0,0,-35,49.4
1528558196605,14.478268505110236,16.086965005678042,-7.587786259541985,12.854961832061068,-1.8854961832061068,-1.3193359375,-0.312255859375,0.264892578125,13.064035234766889,72.75741611025741,0,15.8,14.4,0,-3.4,0.6,-1,0,0,0,-35,49.4
1528558196705,14.478268505110236,16.086965005678042,-52.50381679389313,27.412213740458014,25.801526717557252,-0.754638671875,0.697998046875,-0.152587890625,-42.19532724693433,46.565727685883864,0,15.8,14.4,0,-3.4,0.6,-1,0,0,0,-35,49.4
1528558196805,14.478268505110236,16.086965005678042,47.86259541984733,-34.11450381679389,-16.259541984732824,-0.331787109375,1.249267578125,-0.123291015625,-74.18102899191466,14.804814652681529,0,15.4,14.4,0,-3.8,0.8,-0.6,0,0,0,-35.2,48.2
1528558196904,14.478268505110236,16.086965005678042,43.06106870229008,-27.938931297709924,-20.389312977099237,-1.030517578125,0.1484375,0.038818359375,-8.190873603274765,81.53168492835555,0,15.4,14.4,0,-3.8,0.8,-0.6,0,0,0,-35.2,48.2
1528558197005,14.478268505110236,16.086965005678042,-79.70992366412214,51.717557251908396,22.412213740458014,-1.131591796875,0.17431640625,-0.430908203125,-8.192064616428981,67.66829661020738,0,15.4,14.4,0,-3.8,0.8,-0.6,0,0,0,-35.2,48.2
1528558197105,14.478268505110236,16.086965005678042,-13.106870229007633,2.3740458015267176,13.053435114503817,-0.23828125,1.09521484375,-0.010009765625,-77.71518530132619,12.273820825541428,0,15.4,14.4,0,-3.8,0.8,-0.6,0,0,0,-35.2,48.2
1528558197204,14.478268505110236,16.086965005678042,69.4885496183206,-45.099236641221374,-26.49618320610687,-0.6123046875,0.757080078125,-0.04052734375,-50.973815794188965,38.92486454193525,0,15.4,14.4,0,-3.8,0.8,-0.6,0,0,0,-35.2,48.2
1528558197305,14.478268505110236,16.086965005678042,-5.396946564885496,12.679389312977099,-4.656488549618321,-1.212646484375,-0.26025390625,-0.650634765625,10.709018410648644,59.97756269381607,0,15.4,14.4,0,-3.8,0.8,-0.6,0,0,0,-35.2,48.2
1528558197405,14.478268505110236,16.086965005678042,-80.40458015267176,51.30534351145038,29.198473282442748,-0.778564453125,0.469482421875,-0.19091796875,-30.35575716621728,56.937346462806175,0,15.4,14.4,0,-3.8,0.8,-0.6,0,0,0,-35.2,48.2
1528558197505,14.478268505110236,16.086965005678042,38.465648854961835,-22.870229007633586,-6.412213740458015,-0.060791015625,1.31494140625,0.1171875,-84.26685582549263,2.636520147690069,0,15.4,14.4,0,-3.8,0.8,-0.6,0,0,0,-35.2,48.2
1528558197606,14.478268505110236,16.086965005678042,51.717557251908396,-35.10687022900763,-27.80916030534351,-0.91650390625,0.42333984375,-0.154052734375,-24.490079828688508,63.82403050696014,0,15.4,14.4,0,-3.8,0.8,-0.6,0,0,0,-35.2,48.2
1528558197706,14.478268505110236,16.086965005678042,-62.396946564885496,39.7557251908397,17.931297709923665,-1.457763671875,-0.204345703125,-0.126708984375,7.949996404748062,80.63402226777654,0,15.4,14.4,0,-3.8,0.8,-0.6,0,0,0,-35.2,48.2
1528558197806,14.478268505110236,16.086965005678042,-15.908396946564885,9.717557251908397,13.351145038167939,-0.318603515625,1.3037109375,0.005615234375,-76.26505465012049,13.732770842908568,0,15,14.4,0,-2.4,0.2,-0.6,0,0,0,-35.6,47.6
1528558197907,14.478268505110236,16.086965005678042,83.09160305343511,-55.16793893129771,-26.931297709923665,-0.60400390625,0.755126953125,-0.067626953125,-51.17050142359839,38.543707458565336,0,15,14.4,0,-2.4,0.2,-0.6,0,0,0,-35.6,47.6
1528558198007,14.478268505110236,16.086965005678042,-14.17557251908397,-5.099236641221374,-4.244274809160306,-1.1787109375,-0.59912109375,-0.183837890625,26.666420543952658,62.00151765465318,0,15,14.4,0,-2.4,0.2,-0.6,0,0,0,-35.6,47.6
1528558198107,14.478268505110236,16.086965005678042,-71.50381679389314,42.31297709923664,26.236641221374047,-0.62939453125,0.674560546875,-0.17822265625,-45.88044339557301,42.05329854323337,0,15,14.4,0,-2.4,0.2,-0.6,0,0,0,-35.6,47.6
1528558198207,14.478268505110236,16.086965005678042,37.01526717557252,-25.900763358778626,-14.274809160305344,-0.2744140625,1.3232421875,0.121337890625,-77.22429444332568,11.668330301142756,0,15,14.4,0,-2.4,0.2,-0.6,0,0,0,-35.6,47.6
1528558198307,14.478268505110236,16.086965005678042,50.83969465648855,-31.64885496183206,-30.19083969465649,-0.9609375,0.375,-0.176513671875,-20.997912012113968,66.66877620530747,0,15,14.4,0,-2.4,0.2,-0.6,0,0,0,-35.6,47.6
1528558198408,14.478268505110236,16.086965005678042,-68.21374045801527,43.595419847328245,19.396946564885496,-1.357666015625,-0.13037109375,-0.263671875,5.385053436506981,77.77564449239348,0,15,14.4,0,-2.4,0.2,-0.6,0,0,0,-35.6,47.6
1528558198508,14.478268505110236,16.086965005678042,-26.16793893129771,8.251908396946565,18.778625954198475,-0.38671875,1.23046875,-0.2353515625,-69.8007966295979,17.154926473242018,0,15,14.4,0,-2.4,0.2,-0.6,0,0,0,-35.6,47.6
1528558198608,14.478268505110236,16.086965005678042,68.12977099236642,-46.58015267175573,-24.51145038167939,-0.382080078125,1.00537109375,0.087890625,-68.69600329682262,20.736410769359146,0,15,14.4,0,-2.4,0.2,-0.6,0,0,0,-35.6,47.6
1528558198708,14.478268505110236,16.086965005678042,-1.099236641221374,-0.06870229007633588,-14.870229007633588,-1.1748046875,0.050537109375,-0.219970703125,-2.4211751769842738,79.12494271262675,0,15,14.4,0,-2.4,0.2,-0.6,0,0,0,-35.6,47.6
1528558198808,14.478268505110236,16.086965005678042,-86.38167938931298,53.01526717557252,30.16793893129771,-0.92919921875,0.078857421875,-0.368408203125,-4.510808304357535,67.92940082362217,0,14.6,14.4,0,-1.6,-0.8,-0.8,0,0,0,-35.4,46.4
1528558198908,14.478268505110236,16.086965005678042,0.6564885496183206,-4.458015267175573,-2.900763358778626,-0.081787109375,1.676025390625,0.3134765625,-79.05983736255111,2.7461716887222027,0,14.6,14.4,0,-1.6,-0.8,-0.8,0,0,0,-35.4,46.4
1528558199009,14.478268505110236,16.086965005678042,77.29770992366412,-49.64885496183206,-34.68702290076336,-0.7705078125,0.482177734375,-0.084716796875,-31.88341092509659,57.5690386297787,0,14.6,14.4,0,-1.6,-0.8,-0.8,0,0,0,-35.4,46.4
1528558199109,14.478268505110236,16.086965005678042,-56.900763358778626,29.69465648854962,8.725190839694656,-1.699951171875,-0.1865234375,-0.16650390625,6.232020984463963,81.63291743239247,0,14.6,14.4,0,-1.6,-0.8,-0.8,0,0,0,-35.4,46.4
1528558199210,14.478268505110236,16.086965005678042,-72.69465648854961,43.6412213740458,33.74809160305343,-0.641845703125,0.900146484375,0.009765625,-54.50625504698627,35.48901658811064,0,14.6,14.4,0,-1.6,-0.8,-0.8,0,0,0,-35.4,46.4
1528558199310,14.478268505110236,16.086965005678042,61.74809160305343,-40.091603053435115,-21.34351145038168,-0.273681640625,1.217041015625,-0.048828125,-77.13294097846051,12.663686964796748,0,14.6,14.4,0,-1.6,-0.8,-0.8,0,0,0,-35.4,46.4
1528558199410,14.478268505110236,16.086965005678042,41.091603053435115,-27.221374045801525,-22.221374045801525,-1.00146484375,0.10400390625,-0.250244140625,-5.753358350736431,74.85839784084902,0,14.6,14.4,0,-1.6,-0.8,-0.8,0,0,0,-35.4,46.4
1528558199511,14.478268505110236,16.086965005678042,-95.09923664122137,57.50381679389313,29.893129770992367,-1.46533203125,0.18603515625,-0.28173828125,-7.1066330044725365,77.02528697437087,0,14.6,14.4,0,-1.6,-0.8,-0.8,0,0,0,-35.4,46.4
1528558199611,14.478268505110236,16.086965005678042,0.22137404580152673,-5.740458015267175,3.33587786259542,0.037109375,1.598388671875,0.324462890625,-78.45242847307095,-1.303408434965928,0,14.6,14.4,0,-1.6,-0.8,-0.8,0,0,0,-35.4,46.4
1528558199711,14.478268505110236,16.086965005678042,74.45801526717557,-47.61068702290076,-32.05343511450382,-0.60693359375,0.582275390625,-0.138916015625,-43.08184699146832,45.39525446906508,0,14.6,14.4,0,-1.6,-0.8,-0.8,0,0,0,-35.4,46.4
1528558199811,14.478268505110236,16.086965005678042,-48.56488549618321,44.98473282442748,5.473282442748092,-1.357421875,-0.318115234375,-0.046630859375,13.1818857291263,76.67466527570302,0,14.2,14.4,0,-1.6,-1,-0.8,0,0,0,-35.6,45.8
1528558199911,14.478268505110236,16.086965005678042,-40.083969465648856,20.83969465648855,21.419847328244273,-0.410400390625,1.036376953125,0.12158203125,-67.55902170096536,21.469620903979337,0,14.2,14.4,0,-1.6,-1,-0.8,0,0,0,-35.6,45.8
1528558200012,14.478268505110236,16.086965005678042,69.5114503816794,-46.6412213740458,-24.15267175572519,-0.316650390625,1.20068359375,0.01318359375,-75.21380945325869,14.773100220157962,0,14.2,14.4,0,-1.6,-1,-0.8,0,0,0,-35.6,45.8
1528558200112,14.478268505110236,16.086965005678042,-23.641221374045802,11.82442748091603,-20.900763358778626,-1.109619140625,-0.145263671875,-0.5029296875,6.799685859918579,64.74333695689052,0,14.2,14.4,0,-1.6,-1,-0.8,0,0,0,-35.6,45.8
1528558200212,16.086965005678042,16.086965005678042,-67.63358778625954,37.83969465648855,27.946564885496183,-0.854248046875,0.3916015625,-0.156982421875,-24.269040103070957,63.716218471950626,0,14.2,14.4,0,-1.6,-1,-0.8,0,0,0,-35.6,45.8
1528558200313,16.086965005678042,16.086965005678042,53.70992366412214,-36.54961832061068,-12.297709923664122,0.001953125,1.2685546875,-0.12060546875,-84.56832693864332,-0.08781914046938874,0,14.2,14.4,0,-1.6,-1,-0.8,0,0,0,-35.6,45.8
1528558200414,16.086965005678042,16.086965005678042,16.557251908396946,-9.65648854961832,-20.908396946564885,-0.93896484375,0.11083984375,-0.144775390625,-6.654392673208087,79.01076682202705,0,14.2,14.4,0,-1.6,-1,-0.8,0,0,0,-35.6,45.8
1528558200514,16.086965005678042,16.086965005678042,-97.93129770992367,63.35114503816794,25.412213740458014,-0.897216796875,0.106201171875,-0.284423828125,-6.4376575592812655,71.30497212431344,0,14.2,14.4,0,-1.6,-1,-0.8,0,0,0,-35.6,45.8
1528558200614,16.086965005678042,16.086965005678042,43.70229007633588,-32.87786259541985,1.6412213740458015,-0.083984375,1.302001953125,-0.071044921875,-85.17066788941897,3.685228669221379,0,14.2,14.4,0,-1.6,-1,-0.8,0,0,0,-35.6,45.8
1528558200714,16.086965005678042,16.086965005678042,75.07633587786259,-49.3206106870229,-27.450381679389313,-0.794677734375,0.5615234375,-0.30859375,-33.37228140879356,51.12145517607075,0,14.2,14.4,0,-1.6,-1,-0.8,0,0,0,-35.6,45.8
1528558200814,16.086965005678042,16.086965005678042,-69.8854961832061,49.62595419847328,8.618320610687023,-1.414794921875,-0.06591796875,-0.2626953125,2.6228244675874186,79.16277017442259,0,14.2,16,0,-0.8,-1.2,-1.2,0,0,0,-35.6,44.8
1528558200915,16.086965005678042,16.086965005678042,-28.129770992366414,13.374045801526718,19.47328244274809,-0.5791015625,0.961669921875,0.2001953125,-57.49670911868294,30.521234315437354,0,14.2,16,0,-0.8,-1.2,-1.2,0,0,0,-35.6,44.8
1528558201015,16.086965005678042,16.086965005678042,64.77099236641222,-41.37404580152672,-19.641221374045802,-0.36669921875,1.069091796875,0.02685546875,-71.02091800219604,18.92645804812669,0,14.2,16,0,-0.8,-1.2,-1.2,0,0,0,-35.6,44.8
1528558201115,16.086965005678042,16.086965005678042,-16.984732824427482,2.0610687022900764,-10.038167938931299,-1.31591796875,-0.37939453125,-0.187744140625,15.929881074858953,72.16799093094359,0,14.2,16,0,-0.8,-1.2,-1.2,0,0,0,-35.6,44.8
1528558201215,16.086965005678042,16.086965005678042,-61.603053435114504,32.64885496183206,28.671755725190838,-0.698486328125,0.61767578125,-0.02783203125,-41.4639757774672,48.484635079471744,0,14.2,16,0,-0.8,-1.2,-1.2,0,0,0,-35.6,44.8
1528558201315,16.086965005678042,16.086965005678042,37.37404580152672,-31.38167938931298,-4.320610687022901,-0.33203125,1.09814453125,0.0546875,-72.96334700074354,16.80339055086987,0,14.2,16,0,-0.8,-1.2,-1.2,0,0,0,-35.6,44.8
1528558201415,16.086965005678042,16.086965005678042,25.435114503816795,-12.778625954198473,-23.19083969465649,-0.909912109375,0.277587890625,-0.30322265625,-16.141692297542765,65.68672484921443,0,14.2,16,0,-0.8,-1.2,-1.2,0,0,0,-35.6,44.8
1528558201515,16.086965005678042,16.086965005678042,-86.73282442748092,55.3587786259542,19.03053435114504,-1.1865234375,0.00244140625,-0.342041015625,-0.11327952400335377,73.9188421276968,0,14.2,16,0,-0.8,-1.2,-1.2,0,0,0,-35.6,44.8
1528558201616,16.086965005678042,16.086965005678042,24.96946564885496,-23.31297709923664,-1.9312977099236641,-0.305419921875,1.37939453125,-0.11669921875,-76.66536096745095,12.441722056597193,0,14.2,16,0,-0.8,-1.2,-1.2,0,0,0,-35.6,44.8
1528558201716,17.695661506245845,32.173930011356084,54.29770992366412,-33.68702290076336,-30.47328244274809,-0.783447265625,0.35693359375,-0.14013671875,-24.155070712354508,63.92058984461767,0,14.2,16,0,-0.8,-1.2,-1.2,0,0,0,-35.6,44.8
1528558201816,17.695661506245845,32.173930011356084,-61.69465648854962,37.29007633587786,9.625954198473282,-1.196533203125,-0.1572265625,-0.33642578125,7.2094391435398215,72.7579131397537,0,14.6,16.2,0,-1.4,-1,-1.4,0,0,0,-35.6,45.2
1528558201916,17.695661506245845,32.173930011356084,-13.908396946564885,5.6183206106870225,16.083969465648856,-0.336669921875,1.105224609375,-0.048828125,-72.89143582451062,16.9260486731657,0,14.6,16.2,0,-1.4,-1,-1.4,0,0,0,-35.6,45.2
1528558202016,17.695661506245845,32.173930011356084,59.67175572519084,-43.20610687022901,-18.64885496183206,-0.548828125,0.893798828125,-0.002197265625,-58.44821090959523,31.55150713577942,0,14.6,16.2,0,-1.4,-1,-1.4,0,0,0,-35.6,45.2
1528558202116,17.695661506245845,32.173930011356084,-16.938931297709924,34.19847328244275,-3.7404580152671754,-0.922607421875,-0.268798828125,0.219970703125,15.82289718249734,69.37022775796764,0,14.6,16.2,0,-1.4,-1,-1.4,0,0,0,-35.6,45.2
1528558202215,17.695661506245845,16.086965005678042,-38.038167938931295,18.564885496183205,20.31297709923664,-0.5625,0.869873046875,-0.1455078125,-56.25980477199992,32.529110182051795,0,14.6,16.2,0,-1.4,-1,-1.4,0,0,0,-35.6,45.2
1528558202316,17.695661506245845,16.086965005678042,40.48854961832061,-21.862595419847327,-15.335877862595419,-0.3896484375,1.048828125,0.21826171875,-66.93463134206702,19.987152819240297,0,14.6,16.2,0,-1.4,-1,-1.4,0,0,0,-35.6,45.2
1528558202416,17.695661506245845,16.086965005678042,3.366412213740458,-2.045801526717557,-10.50381679389313,-0.954833984375,0.12158203125,-0.97119140625,-5.10128588888077,44.29071063580049,0,14.6,16.2,0,-1.4,-1,-1.4,0,0,0,-35.6,45.2
1528558202516,17.695661506245845,16.086965005678042,-9.526717557251908,1.4580152671755726,2.381679389312977,-0.779541015625,0.7119140625,0.45361328125,-38.28533144156472,42.72137297497873,0,14.6,16.2,0,-1.4,-1,-1.4,0,0,0,-35.6,45.2
1528558202617,17.695661506245845,16.086965005678042,-4.183206106870229,5.702290076335878,-4.541984732824427,-0.55029296875,0.44140625,-0.5205078125,-30.23118210544965,38.880041213468836,0,14.6,16.2,0,-1.4,-1,-1.4,0,0,0,-35.6,45.2
1528558202717,17.695661506245845,16.086965005678042,-4.473282442748092,1.5725190839694656,-5.755725190839694,-0.967529296875,0.593505859375,0.001708984375,-31.525919299751514,58.47393499390938,0,14.6,16.2,0,-1.4,-1,-1.4,0,0,0,-35.6,45.2
1528558202817,17.695661506245845,16.086965005678042,5.755725190839694,-1.4122137404580153,-3.6412213740458017,-0.605712890625,0.302490234375,-0.16796875,-25.69847544626175,60.26401652912956,0,15.2,17.4,0,-2.2,-0.4,-1.4,0,0,0,-35.6,44.2
1528558202917,17.695661506245845,16.086965005678042,-5.7251908396946565,-2.2519083969465647,2.114503816793893,-0.958251953125,0.634765625,-0.32080078125,-32.13517128065278,53.416806879299216,0,15.2,17.4,0,-2.2,-0.4,-1.4,0,0,0,-35.6,44.2
1528558203017,17.695661506245845,16.086965005678042,-10.198473282442748,15.954198473282442,7.778625954198473,-0.2919921875,0.22021484375,0.127197265625,-34.66094647963579,48.94579878543196,0,15.2,17.4,0,-2.2,-0.4,-1.4,0,0,0,-35.6,44.2
1528558203118,17.695661506245845,16.086965005678042,-4.969465648854962,1.1603053435114503,-1.5572519083969465,-0.844482421875,0.943115234375,-0.25634765625,-46.90059990828399,40.82924470857134,0,15.2,17.4,0,-2.2,-0.4,-1.4,0,0,0,-35.6,44.2
1528558203218,16.086965005678042,0,2.8931297709923665,5.450381679389313,-0.7633587786259542,-0.365478515625,0.12109375,0.041015625,-18.22477018562369,70.71918462433867,0,15.2,17.4,0,-2.2,-0.4,-1.4,0,0,0,-35.6,44.2
1528558203318,16.086965005678042,0,-0.3969465648854962,-0.6412213740458015,1.2748091603053435,-0.69873046875,0.749755859375,-0.6220703125,-38.709840387583434,35.64885285920019,0,15.2,17.4,0,-2.2,-0.4,-1.4,0,0,0,-35.6,44.2
1528558203418,16.086965005678042,0,2.618320610687023,0.29770992366412213,-3.83206106870229,-0.60009765625,0.402587890625,0.29833984375,-30.994403328788053,50.13806472618426,0,15.2,17.4,0,-2.2,-0.4,-1.4,0,0,0,-35.6,44.2
1528558203519,16.086965005678042,0,-0.9083969465648855,-4.549618320610687,-7.32824427480916,-0.845458984375,0.89453125,-0.614501953125,-40.558846950861664,37.91983993138576,0,15.2,17.4,0,-2.2,-0.4,-1.4,0,0,0,-35.6,44.2
1528558203619,16.086965005678042,0,0.6641221374045801,8.389312977099237,-0.7251908396946565,-0.94384765625,0.476318359375,0.54541015625,-23.602862289954405,52.50453343289638,0,15.2,17.4,0,-2.2,-0.4,-1.4,0,0,0,-35.6,44.2
1528558203720,16.086965005678042,16.086965005678042,-31.198473282442748,17.198473282442748,0.9923664122137404,-0.548095703125,0.744384765625,-0.8369140625,-36.65199622851991,26.07458632824108,0,15.2,17.4,0,-2.2,-0.4,-1.4,0,0,0,-35.6,44.2
1528558203820,16.086965005678042,16.086965005678042,-7,-5.549618320610687,-4.396946564885496,-0.892333984375,0.86962890625,0.4169921875,-41.44159208760413,42.776208108582836,0,15.6,15.8,0,-3.8,1.4,-0.8,0,0,0,-34.4,45.2
1528558203921,16.086965005678042,16.086965005678042,7.557251908396947,-2.114503816793893,-1.5419847328244274,-0.521484375,0.145751953125,-0.197021484375,-14.652355463850991,64.82863527959027,0,15.6,15.8,0,-3.8,1.4,-0.8,0,0,0,-34.4,45.2
1528558204021,16.086965005678042,16.086965005678042,-10.16793893129771,5.770992366412214,-1.16793893129771,-0.961181640625,0.874267578125,-0.197509765625,-41.6997621575299,47.00051844010402,0,15.6,15.8,0,-3.8,1.4,-0.8,0,0,0,-34.4,45.2
1528558204121,16.086965005678042,16.086965005678042,20.259541984732824,-6.152671755725191,-0.6793893129770993,-0.592041015625,0.438232421875,0.4873046875,-29.748396926564254,42.09356170844154,0,15.6,15.8,0,-3.8,1.4,-0.8,0,0,0,-34.4,45.2
1528558204222,16.086965005678042,16.086965005678042,-4.694656488549619,-1.0763358778625953,-1.2213740458015268,-0.587158203125,0.45751953125,-1.3251953125,-17.518355481123418,22.724669308612555,0,15.6,15.8,0,-3.8,1.4,-0.8,0,0,0,-34.4,45.2
1528558204322,16.086965005678042,16.086965005678042,-0.15267175572519084,-2.1374045801526718,-4.770992366412214,-1.09814453125,1.020751953125,0.072265625,-42.84647766145954,47.020365444840124,0,15.6,15.8,0,-3.8,1.4,-0.8,0,0,0,-34.4,45.2
1528558204422,16.086965005678042,16.086965005678042,-9.007633587786259,9.221374045801527,-7.229007633587786,-0.49951171875,0.1669921875,0.37744140625,-14.934662819044078,50.43401014724905,0,15.6,15.8,0,-3.8,1.4,-0.8,0,0,0,-34.4,45.2
1528558204522,16.086965005678042,16.086965005678042,-10.778625954198473,-12.473282442748092,-3.0763358778625953,-0.890625,1.0888671875,-0.687744140625,-44.05839316687595,34.665633009331245,0,15.6,15.8,0,-3.8,1.4,-0.8,0,0,0,-34.4,45.2
1528558204622,16.086965005678042,16.086965005678042,12.122137404580153,3.6793893129770994,1.3282442748091603,-1.14208984375,0.106201171875,0.635498046875,-4.645431460783184,60.57044938426909,0,15.6,15.8,0,-3.8,1.4,-0.8,0,0,0,-34.4,45.2
1528558204721,16.086965005678042,16.086965005678042,-40.396946564885496,-2.854961832061069,1.8702290076335877,-1.344482421875,1.0244140625,-1.239013671875,-29.26193805040037,39.905617482232415,0,15.6,15.8,0,-3.8,1.4,-0.8,0,0,0,-34.4,45.2
1528558204822,16.086965005678042,16.086965005678042,13.022900763358779,-5.206106870229007,1.633587786259542,-1.161865234375,0.8046875,1.200927734375,-25.713958296806776,38.789785983654234,0,16,15.8,0,-3.6,1.2,-1.2,0,0,0,-32.6,45.2
1528558204922,16.086965005678042,16.086965005678042,10.282442748091603,-17.129770992366414,-0.44274809160305345,-0.7236328125,0.47607421875,-1.7802734375,-13.913932260501186,21.43868914583545,0,16,15.8,0,-3.6,1.2,-1.2,0,0,0,-32.6,45.2
1528558205022,16.086965005678042,16.086965005678042,-18.022900763358777,6.137404580152672,0.8473282442748091,-0.64306640625,0.668701171875,0.582275390625,-37.625949141747235,35.95149584957393,0,16,15.8,0,-3.6,1.2,-1.2,0,0,0,-32.6,45.2
1528558205122,16.086965005678042,16.086965005678042,5.916030534351145,1.1068702290076335,-3.4732824427480917,-0.388671875,0.40625,-0.157470703125,-44.090263953403394,41.7348542303564,0,16,15.8,0,-3.6,1.2,-1.2,0,0,0,-32.6,45.2
1528558205222,16.086965005678042,16.086965005678042,5.679389312977099,-5.251908396946565,1.3587786259541985,-0.98583984375,0.65380859375,-0.04345703125,-33.52671068245975,56.389485080433346,0,16,15.8,0,-3.6,1.2,-1.2,0,0,0,-32.6,45.2
1528558205322,16.086965005678042,16.086965005678042,-19.49618320610687,15.01526717557252,1.2748091603053435,-0.618896484375,0.44189453125,-0.292724609375,-32.840161639156136,49.42153013916811,0,16,15.8,0,-3.6,1.2,-1.2,0,0,0,-32.6,45.2
1528558205423,16.086965005678042,16.086965005678042,-8.923664122137405,-0.5114503816793893,-4.641221374045801,-0.64794921875,0.802978515625,-0.193115234375,-49.9023194834015,38.116374584858,0,16,15.8,0,-3.6,1.2,-1.2,0,0,0,-32.6,45.2
1528558205523,16.086965005678042,16.086965005678042,-5.709923664122138,3.648854961832061,-9.267175572519085,-0.7939453125,0.515380859375,0.329345703125,-30.946785509075163,52.390691068709394,0,16,15.8,0,-3.6,1.2,-1.2,0,0,0,-32.6,45.2
1528558205623,16.086965005678042,16.086965005678042,-2.0076335877862594,6.190839694656488,-4.66412213740458,-0.6298828125,0.37451171875,-0.218505859375,-29.324414287212008,55.45753959881251,0,16,15.8,0,-3.6,1.2,-1.2,0,0,0,-32.6,45.2
1528558205723,16.086965005678042,16.086965005678042,-5.793893129770993,0.16030534351145037,0.8931297709923665,-0.955322265625,0.604248046875,-0.092529296875,-32.192913893074795,57.38563694310221,0,16,15.8,0,-3.6,1.2,-1.2,0,0,0,-32.6,45.2
1528558205823,16.086965005678042,16.086965005678042,-10.221374045801527,3.763358778625954,5.778625954198473,-0.807373046875,0.406005859375,-0.290771484375,-25.319987407302346,58.261760950992915,0,16.2,15.8,0,-3.8,1.2,-1,0,0,0,-32,45.2
1528558205923,16.086965005678042,16.086965005678042,2.053435114503817,-6.656488549618321,2.2748091603053435,-0.623046875,0.661865234375,0.014404296875,-46.72279098447874,43.262798582389095,0,16.2,15.8,0,-3.8,1.2,-1,0,0,0,-32,45.2
1528558206023,16.086965005678042,16.086965005678042,30,-19.396946564885496,-12.16030534351145,-0.548828125,0.923828125,-0.072998046875,-59.06522848308943,30.635474678541723,0,16.2,15.8,0,-3.8,1.2,-1,0,0,0,-32,45.2
1528558206123,16.086965005678042,16.086965005678042,-59.64885496183206,38.61832061068702,-1.2900763358778626,-1.102783203125,0.158935546875,-0.39208984375,-7.733148671666728,69.01090758586572,0,16.2,15.8,0,-3.8,1.2,-1,0,0,0,-32,45.2
1528558206224,16.086965005678042,16.086965005678042,-9.358778625954198,-3.282442748091603,9.969465648854962,-0.59375,0.8564453125,-0.200439453125,-53.80668389287548,34.020616069573634,0,16.2,15.8,0,-3.8,1.2,-1,0,0,0,-32,45.2
1528558206324,16.086965005678042,16.086965005678042,70.4885496183206,-47.213740458015266,-21.00763358778626,-0.431396484375,0.95947265625,0.22119140625,-63.193675871080714,23.659507868845477,0,16.2,15.8,0,-3.8,1.2,-1,0,0,0,-32,45.2
1528558206425,16.086965005678042,16.086965005678042,-35.099236641221374,25.85496183206107,-8.335877862595419,-1.1611328125,0.02685546875,-0.42431640625,-1.2444758691828581,69.88907170814868,0,16.2,15.8,0,-3.8,1.2,-1,0,0,0,-32,45.2
1528558206525,16.086965005678042,16.086965005678042,-81.90839694656489,45.44274809160305,29.229007633587788,-0.9736328125,0.251953125,-0.208984375,-14.1986341111277,71.41683744044163,0,16.2,15.8,0,-3.8,1.2,-1,0,0,0,-32,45.2
1528558206625,16.086965005678042,16.086965005678042,56.282442748091604,-41.63358778625954,-4.564885496183206,-0.129150390625,1.25830078125,0.190185546875,-79.64623049097628,5.794882741243811,0,16.2,15.8,0,-3.8,1.2,-1,0,0,0,-32,45.2
1528558206725,14.478268505110236,16.086965005678042,57.02290076335878,-38.213740458015266,-23.51145038167939,-0.7578125,0.495361328125,-0.064208984375,-33.077761420128056,56.609480081880555,0,16.2,15.8,0,-3.8,1.2,-1,0,0,0,-32,45.2
1528558206825,14.478268505110236,16.086965005678042,-104.66412213740458,68.89312977099236,19.99236641221374,-1.208740234375,-0.3046875,-0.2177734375,13.932455269435504,72.78507484308035,0,16,15.6,0,-2.6,0.2,-1.2,0,0,0,-32.8,44.8
1528558206926,14.478268505110236,16.086965005678042,-19.358778625954198,4.541984732824427,18.137404580152673,-0.2294921875,1.112060546875,0.095947265625,-77.39180866920071,11.618266822841742,0,16,15.6,0,-2.6,0.2,-1.2,0,0,0,-32.8,44.8
1528558207027,14.478268505110236,16.086965005678042,73.7557251908397,-48.10687022900763,-26,-0.485107421875,1.021484375,-0.072509765625,-64.35060388379286,25.347495996950478,0,16,15.6,0,-2.6,0.2,-1.2,0,0,0,-32.8,44.8
1528558207127,14.478268505110236,16.086965005678042,6.015267175572519,-5.900763358778626,-20.81679389312977,-0.96533203125,0.216552734375,-0.242431640625,-12.274740117575428,71.38953413516379,0,16,15.6,0,-2.6,0.2,-1.2,0,0,0,-32.8,44.8
1528558207227,14.478268505110236,16.086965005678042,-85.90839694656489,54.36641221374046,21.389312977099237,-0.998291015625,0.064697265625,-0.1494140625,-3.66730561841139,80.73670389780759,0,16,15.6,0,-2.6,0.2,-1.2,0,0,0,-32.8,44.8
1528558207327,14.478268505110236,16.086965005678042,9.267175572519085,-14.717557251908397,7,-0.29443359375,1.208740234375,0.092041015625,-75.6830662469194,13.651873353296095,0,16,15.6,0,-2.6,0.2,-1.2,0,0,0,-32.8,44.8
1528558207427,14.478268505110236,16.086965005678042,95.93129770992367,-66.37404580152672,-32.0763358778626,-0.564208984375,0.812255859375,-0.207763671875,-53.49047829144294,33.938741100707695,0,16,15.6,0,-2.6,0.2,-1.2,0,0,0,-32.8,44.8
1528558207527,14.478268505110236,16.086965005678042,-44.52671755725191,27.84732824427481,-4.9541984732824424,-1.272216796875,-0.330810546875,0.042724609375,14.567795211572424,75.30850014296027,0,16,15.6,0,-2.6,0.2,-1.2,0,0,0,-32.8,44.8
1528558207627,14.478268505110236,16.086965005678042,-77.96946564885496,41.23664122137404,31.450381679389313,-0.73486328125,0.62353515625,-0.094482421875,-40.08321395632381,49.36411292191704,0,16,15.6,0,-2.6,0.2,-1.2,0,0,0,-32.8,44.8
1528558207727,14.478268505110236,16.086965005678042,33.79389312977099,-27.610687022900763,-4.465648854961832,-0.216796875,1.251708984375,0.051025390625,-79.91076838455889,9.818190827968708,0,16,15.6,0,-2.6,0.2,-1.2,0,0,0,-32.8,44.8
1528558207827,14.478268505110236,16.086965005678042,66.7557251908397,-41.900763358778626,-24.564885496183205,-0.807373046875,0.417236328125,-0.22119140625,-26.492413574374634,59.67617222354581,0,15.4,14.4,0,-4,0.2,-1,0,0,0,-33.6,45.2
1528558207927,14.478268505110236,16.086965005678042,-93.70229007633588,64.08396946564885,9.106870229007633,-1.029052734375,-0.108154296875,-0.572021484375,5.248592374941835,60.502266983033394,0,15.4,14.4,0,-4,0.2,-1,0,0,0,-33.6,45.2
1528558208028,14.478268505110236,16.086965005678042,-34.19847328244275,12.564885496183207,12.465648854961833,-0.498046875,1.00830078125,0.2255859375,-61.53111880314419,25.73546721898477,0,15.4,14.4,0,-4,0.2,-1,0,0,0,-33.6,45.2
1528558208128,14.478268505110236,16.086965005678042,74.16030534351145,-48.51908396946565,-24.35114503816794,-0.5380859375,0.903076171875,0.10400390625,-58.747918202216695,30.62231744261115,0,15.4,14.4,0,-4,0.2,-1,0,0,0,-33.6,45.2
1528558208228,16.086965005678042,16.086965005678042,24.427480916030536,-5.770992366412214,-21.51145038167939,-0.929443359375,0.122802734375,-0.21826171875,-7.32948566502265,74.91988757941125,0,15.4,14.4,0,-4,0.2,-1,0,0,0,-33.6,45.2
1528558208327,16.086965005678042,16.086965005678042,-85.70229007633588,54.595419847328245,22.84732824427481,-1.10888671875,0.029541015625,-0.382080078125,-1.4428055393178734,70.93535226065609,0,15.4,14.4,0,-4,0.2,-1,0,0,0,-33.6,45.2
1528558208428,16.086965005678042,16.086965005678042,2.4122137404580153,-11.045801526717558,13.648854961832061,-0.35107421875,0.90625,-0.0380859375,-68.71087136651747,21.158958609829693,0,15.4,14.4,0,-4,0.2,-1,0,0,0,-33.6,45.2
1528558208527,16.086965005678042,16.086965005678042,77.76335877862596,-54.19847328244275,-17.61832061068702,-0.478515625,1.024658203125,0.02685546875,-64.93285685928154,25.02504462245828,0,15.4,14.4,0,-4,0.2,-1,0,0,0,-33.6,45.2
1528558208628,16.086965005678042,16.086965005678042,-29.221374045801525,21.519083969465647,-10.83969465648855,-1.136474609375,0.209228515625,-0.16455078125,-10.326195709445203,76.8178948040429,0,15.4,14.4,0,-4,0.2,-1,0,0,0,-33.6,45.2
1528558208728,16.086965005678042,16.086965005678042,-85.12977099236642,55.20610687022901,21.66412213740458,-0.962158203125,0.286865234375,-0.228759765625,-16.17543632416614,69.12613747659154,0,15.4,14.4,0,-4,0.2,-1,0,0,0,-33.6,45.2
1528558208829,16.086965005678042,16.086965005678042,43.847328244274806,-34.587786259541986,-8.946564885496183,-0.123291015625,1.3623046875,-0.06982421875,-84.06214895201204,5.164540341850379,0,15.2,16,0,-4.8,0.4,-1.2,0,0,0,-33.4,46
1528558208929,16.086965005678042,16.086965005678042,58.458015267175576,-40.67175572519084,-27.954198473282442,-1.021728515625,0.211181640625,-0.007080078125,-11.677778151491939,78.31556835305808,0,15.2,16,0,-4.8,0.4,-1.2,0,0,0,-33.4,46
1528558209028,16.086965005678042,16.086965005678042,-68.19847328244275,46.76335877862596,17.404580152671755,-1.290771484375,-0.08349609375,-0.245361328125,3.6362011578822675,78.6463362628129,0,15.2,16,0,-4.8,0.4,-1.2,0,0,0,-33.4,46
1528558209129,16.086965005678042,16.086965005678042,-60.98473282442748,37,23.435114503816795,-0.494873046875,0.8212890625,-0.208740234375,-56.81664895002638,30.28447192986062,0,15.2,16,0,-4.8,0.4,-1.2,0,0,0,-33.4,46
1528558209229,16.086965005678042,16.086965005678042,80.70229007633588,-53.091603053435115,-21.259541984732824,-0.360107421875,0.927734375,-0.082763671875,-68.28371396089068,21.137621986678514,0,15.2,16,0,-4.8,0.4,-1.2,0,0,0,-33.4,46
1528558209329,16.086965005678042,16.086965005678042,-16.03053435114504,10.068702290076336,-9.183206106870228,-1.224609375,0.075927734375,-0.114501953125,-3.532519624962643,83.59875337803693,0,15.2,16,0,-4.8,0.4,-1.2,0,0,0,-33.4,46
1528558209429,16.086965005678042,16.086965005678042,-91.09923664122137,56.83206106870229,25.083969465648856,-0.746337890625,0.29736328125,-0.1396484375,-21.386956844941842,66.2419402849015,0,15.2,16,0,-4.8,0.4,-1.2,0,0,0,-33.4,46
1528558209528,16.086965005678042,16.086965005678042,52.786259541984734,-35.38167938931298,-10.587786259541986,-0.025390625,1.359619140625,0.079345703125,-86.49364615259321,1.0680464832431813,0,15.2,16,0,-4.8,0.4,-1.2,0,0,0,-33.4,46
1528558209629,16.086965005678042,16.086965005678042,54.282442748091604,-34.603053435114504,-27.69465648854962,-0.937744140625,0.36962890625,-0.256591796875,-20.8164166994685,64.36675195442518,0,15.2,16,0,-4.8,0.4,-1.2,0,0,0,-33.4,46
1528558209729,16.086965005678042,16.086965005678042,-70.74045801526718,48.47328244274809,10.450381679389313,-1.19482421875,0.0673828125,-0.18701171875,-3.189065198166788,80.55431283411278,0,15.2,16,0,-4.8,0.4,-1.2,0,0,0,-33.4,46
1528558209829,16.086965005678042,16.086965005678042,-45.38931297709924,22.572519083969464,18.641221374045802,-0.6103515625,0.85595703125,-0.101318359375,-54.13980124591391,35.30306588741382,0,15.2,16,0,-4.2,0.6,-1.2,0,0,0,-34.8,47
1528558209929,16.086965005678042,16.086965005678042,91.43511450381679,-54.38931297709924,-26.541984732824428,-0.477783203125,0.833740234375,0.25341796875,-57.02934511706075,28.73559754302105,0,15.2,16,0,-4.2,0.6,-1.2,0,0,0,-34.8,47
1528558210029,16.086965005678042,16.086965005678042,6.931297709923665,-9.877862595419847,-14.091603053435115,-1.343994140625,0.00341796875,-0.53271484375,-0.1354583627243659,68.37785849701169,0,15.2,16,0,-4.2,0.6,-1.2,0,0,0,-34.8,47
1528558210129,16.086965005678042,16.086965005678042,-79.9618320610687,45.030534351145036,28.366412213740457,-0.958984375,0.24609375,-0.1953125,-14.11478243719768,71.86029915912353,0,15.2,16,0,-4.2,0.6,-1.2,0,0,0,-34.8,47
1528558210229,16.086965005678042,16.086965005678042,0.816793893129771,-1.1908396946564885,6.3893129770992365,-0.072021484375,1.18798828125,0.28271484375,-76.20243528047716,3.3752627094898306,0,15.2,16,0,-4.2,0.6,-1.2,0,0,0,-34.8,47
1528558210329,16.086965005678042,16.086965005678042,67.6793893129771,-43.954198473282446,-26.137404580152673,-0.7236328125,0.641845703125,-0.149658203125,-40.97743567602007,47.67370239220477,0,15.2,16,0,-4.2,0.6,-1.2,0,0,0,-34.8,47
1528558210429,16.086965005678042,16.086965005678042,-52.16793893129771,34.42748091603053,-5.7251908396946565,-0.938232421875,-0.069091796875,-0.321044921875,3.9856007251239998,70.70919098616758,0,15.2,16,0,-4.2,0.6,-1.2,0,0,0,-34.8,47
1528558210529,16.086965005678042,16.086965005678042,-91.41984732824427,49.12213740458015,26.48854961832061,-0.73779296875,0.550048828125,-0.147705078125,-36.16781538254175,52.33384629819875,0,15.2,16,0,-4.2,0.6,-1.2,0,0,0,-34.8,47
1528558210629,16.086965005678042,16.086965005678042,49.29770992366412,-38.152671755725194,-5.877862595419847,-0.34130859375,1.244873046875,0.35888671875,-68.3050186133876,14.758799369219599,0,15.2,16,0,-4.2,0.6,-1.2,0,0,0,-34.8,47
1528558210730,17.695661506245845,32.173930011356084,67.6030534351145,-39.10687022900763,-28.587786259541986,-0.747802734375,0.5751953125,-0.24609375,-36.15312244363973,50.083365881200194,0,15.2,16,0,-4.2,0.6,-1.2,0,0,0,-34.8,47
1528558210830,17.695661506245845,32.173930011356084,-68.92366412213741,45.38167938931298,6.305343511450381,-1.310546875,-0.259765625,-0.44091796875,10.63982008880908,68.67010414615127,0,15.2,16.2,0,-3.6,0,-1.4,0,0,0,-35.6,47
1528558210931,17.695661506245845,32.173930011356084,-36.961832061068705,12.694656488549619,24.702290076335878,-0.52685546875,0.87841796875,-0.17333984375,-57.731454178313236,30.47384783216167,0,15.2,16.2,0,-3.6,0,-1.4,0,0,0,-35.6,47
1528558211031,17.695661506245845,32.173930011356084,88.38167938931298,-65.9618320610687,-13.763358778625955,-0.301025390625,1.005859375,0.16943359375,-71.04645877202023,16.442083941420723,0,15.2,16.2,0,-3.6,0,-1.4,0,0,0,-35.6,47
1528558211131,17.695661506245845,32.173930011356084,49.152671755725194,-31.946564885496183,-19.236641221374047,-0.834228515625,0.346923828125,-0.1357421875,-22.31636318578569,65.93628094817318,0,15.2,16.2,0,-3.6,0,-1.4,0,0,0,-35.6,47
1528558211232,17.695661506245845,16.086965005678042,-110.37404580152672,71.98473282442748,23.778625954198475,-1.18408203125,-0.100341796875,-0.39697265625,4.593679784992627,70.92451398855354,0,15.2,16.2,0,-3.6,0,-1.4,0,0,0,-35.6,47
1528558211332,17.695661506245845,16.086965005678042,-102.09923664122137,63.030534351145036,29.84732824427481,-0.64697265625,0.92333984375,-0.0107421875,-54.97784160056219,35.01662507714164,0,15.2,16.2,0,-3.6,0,-1.4,0,0,0,-35.6,47
1528558211432,17.695661506245845,16.086965005678042,5.0458015267175576,-6.67175572519084,-0.6030534351145038,-0.532470703125,0.98095703125,-0.100830078125,-61.081381770979476,28.367380064963807,0,15.2,16.2,0,-3.6,0,-1.4,0,0,0,-35.6,47
1528558211532,17.695661506245845,16.086965005678042,119.76335877862596,-79.25190839694656,-23.114503816793892,-0.44287109375,0.720703125,-0.042724609375,-58.310828366395604,31.525856370593573,0,15.2,16.2,0,-3.6,0,-1.4,0,0,0,-35.6,47
1528558211633,17.695661506245845,16.086965005678042,102.95419847328245,-66.49618320610686,-30.702290076335878,-0.7451171875,0.50244140625,-0.125732421875,-33.62041330004482,55.19665943571483,0,15.2,16.2,0,-3.6,0,-1.4,0,0,0,-35.6,47
1528558211733,17.695661506245845,16.086965005678042,-47.274809160305345,29.83969465648855,-5.022900763358779,-1.12353515625,0.09423828125,-0.285888671875,-4.647145621817517,75.00143194303249,0,15.2,16.2,0,-3.6,0,-1.4,0,0,0,-35.6,47
1528558211833,17.695661506245845,16.086965005678042,-92.37404580152672,55.12977099236641,26.31297709923664,-0.952880859375,0.35986328125,-0.15185546875,-20.453099112053394,67.71098957201502,0,15.6,17.4,0,-3.8,0.4,-1,0,0,0,-34.8,47.2
1528558211933,17.695661506245845,16.086965005678042,32.3587786259542,-31.641221374045802,6.893129770992366,-0.532958984375,1.181396484375,-0.155029296875,-64.83471368542483,24.098561974780264,0,15.6,17.4,0,-3.8,0.4,-1,0,0,0,-34.8,47.2
1528558212034,17.695661506245845,16.086965005678042,108.5114503816794,-74.45038167938931,-25.557251908396946,-0.545166015625,0.8779296875,-0.085693359375,-57.846845498980805,31.717334147587607,0,15.6,17.4,0,-3.8,0.4,-1,0,0,0,-34.8,47.2
1528558212134,17.695661506245845,16.086965005678042,65.48091603053435,-46.045801526717554,-21.519083969465647,-0.88818359375,0.311279296875,-0.13818359375,-19.101031822468972,69.02077304294325,0,15.6,17.4,0,-3.8,0.4,-1,0,0,0,-34.8,47.2
1528558212234,17.695661506245845,16.086965005678042,-65.08396946564885,39.49618320610687,4.290076335877862,-0.886962890625,0.41650390625,-0.32568359375,-23.788224842573815,59.20074142492591,0,15.6,17.4,0,-3.8,0.4,-1,0,0,0,-34.8,47.2
1528558212334,17.695661506245845,16.086965005678042,-123.77862595419847,78.46564885496183,19.610687022900763,-0.92578125,0.40576171875,-0.068603515625,-23.609786254897998,66.03430502349687,0,15.6,17.4,0,-3.8,0.4,-1,0,0,0,-34.8,47.2
1528558212434,17.695661506245845,16.086965005678042,-101.18320610687023,64.34351145038168,22.12213740458015,-0.6533203125,0.5927734375,0.044921875,-42.150987780060106,47.70012458332018,0,15.6,17.4,0,-3.8,0.4,-1,0,0,0,-34.8,47.2
1528558212534,17.695661506245845,16.086965005678042,-11.854961832061068,2.6030534351145036,6.038167938931298,-0.505126953125,0.87939453125,-0.022705078125,-60.101826355619124,29.864948814700313,0,15.6,17.4,0,-3.8,0.4,-1,0,0,0,-34.8,47.2
1528558212633,17.695661506245845,16.086965005678042,91.48091603053435,-62.969465648854964,-16.564885496183205,-0.550048828125,0.77490234375,-0.12109375,-53.98930341745659,35.04268383104229,0,15.6,17.4,0,-3.8,0.4,-1,0,0,0,-34.8,47.2
1528558212734,16.086965005678042,0,119.1526717557252,-82.38167938931298,-25.47328244274809,-0.802978515625,0.602783203125,-0.130859375,-36.53511240714175,52.469614477205546,0,15.6,17.4,0,-3.8,0.4,-1,0,0,0,-34.8,47.2
1528558212834,16.086965005678042,0,46.56488549618321,-31.748091603053435,-17.34351145038168,-0.850341796875,0.48095703125,-0.214599609375,-28.740796446848474,58.22786905649043,0,16.2,17,0,-1.2,-1.2,-1,0,0,0,-35.4,48
1528558212934,16.086965005678042,0,-68.62595419847328,47.2442748091603,1.9541984732824427,-1.1162109375,0.337890625,-0.069091796875,-16.811347222820395,72.83011388170631,0,16.2,17,0,-1.2,-1.2,-1,0,0,0,-35.4,48
1528558213034,16.086965005678042,0,-112.81679389312977,71.29007633587786,26.198473282442748,-1.04296875,0.29638671875,-0.090576171875,-15.80737084912733,73.45069436864085,0,16.2,17,0,-1.2,-1.2,-1,0,0,0,-35.4,48
1528558213135,16.086965005678042,0,-90.41221374045801,60.23664122137404,14.770992366412214,-0.13427734375,0.949462890625,0.07080078125,-80.91645089327382,8.02764877796951,0,16.2,17,0,-1.2,-1.2,-1,0,0,0,-35.4,48
1528558213235,16.086965005678042,16.086965005678042,21.427480916030536,-20.65648854961832,0.19083969465648856,-0.58544921875,0.97412109375,-0.1142578125,-58.51914851954334,30.83341969447987,0,16.2,17,0,-1.2,-1.2,-1,0,0,0,-35.4,48
1528558213336,16.086965005678042,16.086965005678042,98.81679389312977,-68.38931297709924,-19.984732824427482,-0.52880859375,0.745361328125,-0.15478515625,-53.52693285377625,34.78562281153779,0,16.2,17,0,-1.2,-1.2,-1,0,0,0,-35.4,48
1528558213436,16.086965005678042,16.086965005678042,86.7557251908397,-59.0763358778626,-26.358778625954198,-0.779541015625,0.57958984375,0.003662109375,-36.63055189339192,53.368597774083014,0,16.2,17,0,-1.2,-1.2,-1,0,0,0,-35.4,48
1528558213536,16.086965005678042,16.086965005678042,15.854961832061068,-10.412213740458014,-12.374045801526718,-1.087646484375,0.243408203125,-0.259033203125,-12.281910461446305,71.90219839409528,0,16.2,17,0,-1.2,-1.2,-1,0,0,0,-35.4,48
1528558213636,16.086965005678042,16.086965005678042,-102.09923664122137,66.06106870229007,16.984732824427482,-1.144287109375,-0.0322265625,-0.250244140625,1.5759688272263002,77.56547977534017,0,16.2,17,0,-1.2,-1.2,-1,0,0,0,-35.4,48
1528558213737,17.695661506245845,32.173930011356084,-114.97709923664122,71.45801526717557,32.25954198473283,-0.724365234375,0.575439453125,-0.032470703125,-38.43580350886751,51.49182701440754,0,16.2,17,0,-1.2,-1.2,-1,0,0,0,-35.4,48
1528558213838,17.695661506245845,32.173930011356084,-45.908396946564885,24.51145038167939,16.81679389312977,-0.540771484375,0.90966796875,-0.06640625,-59.08106002346506,30.663430135163527,0,16.4,16,0,-3.8,0.4,-0.6,0,0,0,-36,48.4
1528558213937,17.695661506245845,32.173930011356084,69.58015267175573,-49.42748091603053,-9.687022900763358,-0.4892578125,0.92138671875,0.062744140625,-61.83761606168725,27.913508955089455,0,16.4,16,0,-3.8,0.4,-0.6,0,0,0,-36,48.4
1528558214037,17.695661506245845,32.173930011356084,97.56488549618321,-66.29007633587786,-24.938931297709924,-0.655029296875,0.699462890625,-0.202392578125,-45.57409254581493,41.973686897248996,0,16.4,16,0,-3.8,0.4,-0.6,0,0,0,-36,48.4
1528558214137,17.695661506245845,32.173930011356084,78.78625954198473,-55.06870229007634,-29.358778625954198,-0.778564453125,0.572021484375,-0.076171875,-36.17508539663943,53.45421222568656,0,16.4,16,0,-3.8,0.4,-0.6,0,0,0,-36,48.4
1528558214237,17.695661506245845,16.086965005678042,27.129770992366414,-17.053435114503817,-17.236641221374047,-1.06884765625,0.533447265625,-0.16748046875,-26.24652285286349,62.385670788328206,0,16.4,16,0,-3.8,0.4,-0.6,0,0,0,-36,48.4
1528558214338,17.695661506245845,16.086965005678042,-97.25190839694656,61.47328244274809,17.358778625954198,-1.14453125,0.04248046875,-0.018310546875,-2.125345054457389,87.68552768894114,0,16.4,16,0,-3.8,0.4,-0.6,0,0,0,-36,48.4
1528558214438,17.695661506245845,16.086965005678042,-88.3587786259542,55.88549618320611,31.374045801526716,-0.7109375,0.610107421875,-0.173095703125,-39.82183821302409,48.265656834053196,0,16.4,16,0,-3.8,0.4,-0.6,0,0,0,-36,48.4
1528558214538,17.695661506245845,16.086965005678042,-7.404580152671755,-7.267175572519084,14.312977099236642,-0.567626953125,0.875732421875,-0.001953125,-57.049588612248286,32.95019154282333,0,16.4,16,0,-3.8,0.4,-0.6,0,0,0,-36,48.4
1528558214638,17.695661506245845,16.086965005678042,68.08396946564885,-49.541984732824424,-11.122137404580153,-0.46533203125,0.885498046875,0.145263671875,-61.16662174708568,27.409977224843292,0,16.4,16,0,-3.8,0.4,-0.6,0,0,0,-36,48.4
1528558214738,17.695661506245845,16.086965005678042,63.99236641221374,-40.97709923664122,-19.580152671755727,-0.7763671875,0.474609375,-0.206787109375,-30.57143791700823,56.30362330131038,0,16.4,16,0,-3.8,0.4,-0.6,0,0,0,-36,48.4
1528558214838,17.695661506245845,16.086965005678042,-4.755725190839694,2.49618320610687,-10.801526717557252,-0.9345703125,0.342041015625,-0.501953125,-17.870624742654343,56.97867463375846,0,16.6,17.2,0,-0.4,-2.4,-0.8,0,0,0,-37.2,47.6
1528558214938,17.695661506245845,16.086965005678042,-57.83206106870229,37.37404580152672,5.793893129770993,-0.78857421875,0.590087890625,-0.032958984375,-36.78342455779289,53.14977903733042,0,16.6,17.2,0,-0.4,-2.4,-0.8,0,0,0,-37.2,47.6
1528558215038,17.695661506245845,16.086965005678042,-13.580152671755725,6.603053435114504,0.22137404580152673,-0.810791015625,0.573974609375,-0.095703125,-35.108699935420525,54.333283041828345,0,16.6,17.2,0,-0.4,-2.4,-0.8,0,0,0,-37.2,47.6
1528558215139,17.695661506245845,16.086965005678042,49.70229007633588,-34.908396946564885,-14.19083969465649,-0.607421875,0.72216796875,-0.12060546875,-49.385978680404286,39.67975010015523,0,16.6,17.2,0,-0.4,-2.4,-0.8,0,0,0,-37.2,47.6
1528558215239,17.695661506245845,16.086965005678042,-1.2213740458015268,1.4580152671755726,-10.816793893129772,-0.906982421875,0.295166015625,0.382080078125,-16.694609767666375,61.97234646166474,0,16.6,17.2,0,-0.4,-2.4,-0.8,0,0,0,-37.2,47.6
1528558215340,17.695661506245845,16.086965005678042,-42.45038167938932,23.755725190839694,15.259541984732824,-1.01806640625,0.303466796875,-0.26806640625,-16.079960546154158,68.31109467936574,0,16.6,17.2,0,-0.4,-2.4,-0.8,0,0,0,-37.2,47.6
1528558215440,17.695661506245845,16.086965005678042,-3.0229007633587788,-2.183206106870229,6.99236641221374,-0.52880859375,0.840576171875,-0.018798828125,-57.80958843053291,32.1676455466608,0,16.6,17.2,0,-0.4,-2.4,-0.8,0,0,0,-37.2,47.6
1528558215540,17.695661506245845,16.086965005678042,27.916030534351144,-16.69465648854962,-13.022900763358779,-0.59326171875,0.768310546875,-0.138427734375,-51.588910672899175,37.23222452713519,0,16.6,17.2,0,-0.4,-2.4,-0.8,0,0,0,-37.2,47.6
1528558215640,17.695661506245845,16.086965005678042,-47.14503816793893,32.97709923664122,-1.015267175572519,-1.0107421875,0.289794921875,-0.129150390625,-15.87589151951526,72.57297444430975,0,16.6,17.2,0,-0.4,-2.4,-0.8,0,0,0,-37.2,47.6
1528558215740,16.086965005678042,16.086965005678042,-8.641221374045802,-0.8549618320610687,8.389312977099237,-0.618408203125,0.7607421875,-0.251220703125,-48.73573069169557,37.66459100824423,0,16.6,17.2,0,-0.4,-2.4,-0.8,0,0,0,-37.2,47.6
1528558215840,16.086965005678042,16.086965005678042,50.06106870229008,-34.87786259541985,-16.198473282442748,-0.496337890625,0.705078125,0.078857421875,-54.51961558578743,34.97607920414843,0,16.8,17,0,-2.6,-0.8,-0.6,0,0,0,-36.6,49
1528558215940,16.086965005678042,16.086965005678042,-28.137404580152673,21.12213740458015,-7.305343511450381,-1.127197265625,0.0146484375,-0.295654296875,-0.7201841404357545,75.28562478606868,0,16.8,17,0,-2.6,-0.8,-0.6,0,0,0,-36.6,49
1528558216040,16.086965005678042,16.086965005678042,-20.35114503816794,8.946564885496183,21.17557251908397,-0.86083984375,0.620849609375,-0.094970703125,-35.635394251854045,53.88539495011859,0,16.8,17,0,-2.6,-0.8,-0.6,0,0,0,-36.6,49
1528558216141,16.086965005678042,16.086965005678042,-8.946564885496183,4.1603053435114505,-9.022900763358779,-0.3427734375,1.2744140625,-0.014404296875,-74.93300084662725,15.053398694153438,0,16.8,17,0,-2.6,-0.8,-0.6,0,0,0,-36.6,49
1528558216241,16.086965005678042,16.086965005678042,15.274809160305344,-10.473282442748092,-12.198473282442748,-1.0703125,0.06982421875,-0.345458984375,-3.552562510828833,71.77372607695244,0,16.8,17,0,-2.6,-0.8,-0.6,0,0,0,-36.6,49
1528558216341,16.086965005678042,16.086965005678042,-16.50381679389313,5.198473282442748,19.328244274809162,-0.68896484375,0.6103515625,-0.069091796875,-41.39537742258823,48.28125618528057,0,16.8,17,0,-2.6,-0.8,-0.6,0,0,0,-36.6,49
1528558216441,16.086965005678042,16.086965005678042,-11.099236641221374,12.98473282442748,-8.946564885496183,-0.29052734375,0.8876953125,-0.1953125,-68.47746475722715,17.725823455688005,0,16.8,17,0,-2.6,-0.8,-0.6,0,0,0,-36.6,49
