"time","speed","speed2","gyro.x","gyro.y","gyro.z","accel.x","accel.y","accel.z","rotation.x","rotation.y","vibration","mAvg.speed","mAvg.speed2","mAvg.vibration","mAvg.gyro.x","mAvg.gyro.y","mAvg.gyro.z","mAvg.accel.x","mAvg.accel.y","mAvg.accel.z","mAvg.rotation.x","mAvg.rotation.y"
1528558080364,0,0,-3.030534351145038,0.5725190839694656,-1.2442748091603053,-0.740966796875,0.603759765625,-0.15087890625,-38.605345372885,49.97362120743668,0,0,0,0,0,0,0,0,0,0,0,0
1528558080465,0,0,-2.9770992366412212,0.5801526717557252,-0.9618320610687023,-0.740478515625,0.6005859375,-0.1435546875,-38.52865278666621,50.17439908193869,0,0,0,0,0,0,0,0,0,0,0,0
1528558080574,0,0,-3.236641221374046,0.648854961832061,-1.0687022900763359,-0.739501953125,0.609130859375,-0.155029296875,-38.87504092451014,49.636684668503854,0,0,0,0,0,0,0,0,0,0,0,0
1528558080674,0,0,-2.717557251908397,0.33587786259541985,-1.2900763358778626,-0.743408203125,0.608154296875,-0.150634765625,-38.721541284442985,49.876366131288854,0,0,0,0,0,0,0,0,0,0,0,0
1528558080775,0,0,-3.198473282442748,0.6335877862595419,-1.1297709923664123,-0.718994140625,0.596435546875,-0.151611328125,-39.065966954575565,49.43903048163519,0,0,0,0,0,0,0,0,0,0,0,0
1528558080877,0,0,-2.519083969465649,0.2824427480916031,-1.465648854961832,-0.765380859375,0.587158203125,-0.158447265625,-36.914491858464665,51.52981550566599,0,0,0,0,0,0,0,0,0,0,0,0
1528558080977,0,0,-3.381679389312977,0.9923664122137404,-0.9236641221374046,-0.736328125,0.607177734375,-0.15185546875,-38.924561544279875,49.63544613241858,0,0,0,0,0,0,0,0,0,0,0,0
1528558081077,0,0,-2.900763358778626,0.5572519083969466,-1.1297709923664123,-0.73828125,0.60595703125,-0.15380859375,-38.78239997369931,49.74224461247045,0,0,0,0,0,0,0,0,0,0,0,0
1528558081177,0,0,-2.9770992366412212,0.46564885496183206,-1.3358778625954197,-0.735595703125,0.603271484375,-0.1455078125,-38.81750985105944,49.84797529678958,0,0,0,0,0,0,0,0,0,0,0,0
1528558081286,0,0,-2.572519083969466,0.29770992366412213,-1.2595419847328244,-0.748046875,0.595703125,-0.143310546875,-38.029708724443424,50.68029313259066,0,0,0,0,0,0,0,0,0,0,0,0
1528558081387,0,0,-3.045801526717557,0.5114503816793893,-1.2366412213740459,-0.740234375,0.610107421875,-0.150634765625,-38.92626076282853,49.670131429613086,0,0,0,0,0,0,0,0,0,0,0,0
1528558081486,0,0,-2.9236641221374047,0.5648854961832062,-1.2900763358778626,-0.742919921875,0.597412109375,-0.134033203125,-38.35684548752885,50.50701729594199,0,0,0,0,0,0,0,0,0,0,0,0
1528558081586,0,0,-2.9083969465648853,0.5038167938931297,-1.282442748091603,-0.744384765625,0.598388671875,-0.14013671875,-38.30848311050139,50.45623753718174,0,0,0,0,0,0,0,0,0,0,0,0
1528558081686,0,0,-3.0763358778625953,0.5801526717557252,-1.213740458015267,-0.722412109375,0.59423828125,-0.144775390625,-38.88750851626631,49.74755023055779,0,0,0,0,0,0,0,0,0,0,0,0
1528558081786,0,0,-2.931297709923664,0.6412213740458015,-1.2748091603053435,-0.735107421875,0.6044921875,-0.159912109375,-38.782774932604674,49.61534360261257,0,0,0,0,0,0,0,0,0,0,0,0
1528558081886,0,0,-2.7938931297709924,0.4198473282442748,-1.5038167938931297,-0.738525390625,0.6005859375,-0.149658203125,-38.5556502181098,50.0339256323832,0,0,0,0,0,0,0,0,0,0,0,0
1528558081986,0,0,-2.8625954198473282,0.5419847328244275,-1.282442748091603,-0.739990234375,0.6044921875,-0.14501953125,-38.717167301913385,49.96736344935757,0,0,0,0,0,0,0,0,0,0,0,0
1528558082087,0,0,-3.053435114503817,0.5267175572519084,-1.1221374045801527,-0.74365234375,0.586669921875,-0.150146484375,-37.7147469645874,50.84302680691305,0,0,0,0,0,0,0,0,0,0,0,0
1528558082186,0,0,-3.015267175572519,0.5877862595419847,-1.3053435114503817,-0.73193359375,0.5966796875,-0.155029296875,-38.57295828851766,49.89334369426472,0,0,0,0,0,0,0,0,0,0,0,0
1528558082286,0,0,-2.763358778625954,0.3282442748091603,-1.2671755725190839,-0.744873046875,0.60302734375,-0.144775390625,-38.4741373139663,50.22007536801391,0,0,0,0,0,0,0,0,0,0,0,0
1528558082386,0,0,-3.3740458015267176,0.7404580152671756,-1.16793893129771,-0.74560546875,0.612548828125,-0.140380859375,-38.916028773780894,49.87434654777217,0,0,0,0,0,0,0,0,0,0,0,0
1528558082486,0,0,-2.3206106870229006,0.06870229007633588,-1.8091603053435115,-0.737548828125,0.604248046875,-0.151123046875,-38.750197989162366,49.81893291589074,0,0,0,0,0,0,0,0,0,0,0,0
1528558082586,0,0,-3.2900763358778624,0.916030534351145,-0.9847328244274809,-0.752685546875,0.59130859375,-0.135986328125,-37.70698778578563,51.12752532291593,0,0,0,0,0,0,0,0,0,0,0,0
1528558082687,0,0,-2.9083969465648853,0.3511450381679389,-1.1526717557251909,-0.739501953125,0.605224609375,-0.157470703125,-38.67638907554636,49.77978512727133,0,0,0,0,0,0,0,0,0,0,0,0
1528558082787,0,0,-3.1297709923664123,0.4732824427480916,-1.2442748091603053,-0.73291015625,0.607666015625,-0.171630859375,-38.91304618442508,49.25344811484834,0,0,0,0,0,0,0,0,0,0,0,0
1528558082888,0,0,-2.4732824427480917,0.5954198473282443,-1.381679389312977,-0.747314453125,0.599853515625,-0.150390625,-38.19931198704302,50.391519713883305,0,0,0,0,0,0,0,0,0,0,0,0
1528558082988,0,0,-3.6717557251908395,1,-1.0763358778625953,-0.7431640625,0.6044921875,-0.12744140625,-38.71918549666091,50.26381315969879,0,0,0,0,0,0,0,0,0,0,0,0
1528558083092,0,0,-2.786259541984733,0.44274809160305345,-1.381679389312977,-0.730712890625,0.61279296875,-0.171875,-39.22630137838558,48.944609715531946,0,0,0,0,0,0,0,0,0,0,0,0
1528558083192,0,0,-3.068702290076336,0.7557251908396947,-1.3206106870229009,-0.74365234375,0.602783203125,-0.147705078125,-38.48612523108141,50.153264858886374,0,0,0,0,0,0,0,0,0,0,0,0
1528558083292,0,0,-3.1374045801526718,0.4961832061068702,-1.1068702290076335,-0.735595703125,0.607421875,-0.1494140625,-38.980833632843364,49.62315941362473,0,0,0,0,0,0,0,0,0,0,0,0
1528558083392,0,0,-2.9236641221374047,0.5801526717557252,-1.450381679389313,-0.732666015625,0.62060546875,-0.148681640625,-39.6970968352292,48.943463690909276,0,0,0,0,0,0,0,0,0,0,0,0
1528558083492,0,0,-2.9083969465648853,0.5801526717557252,-1.1908396946564885,-0.738525390625,0.6005859375,-0.143798828125,-38.59800469720396,50.0973558635281,0,0,0,0,0,0,0,0,0,0,0,0
1528558083592,0,0,-2.7251908396946565,0.6793893129770993,-1.3435114503816794,-0.7412109375,0.603271484375,-0.162841796875,-38.48263926806413,49.868103054518485,0,0,0,0,0,0,0,0,0,0,0,0
1528558083693,0,0,-3.0763358778625953,0.7938931297709924,-1.251908396946565,-0.736083984375,0.60595703125,-0.147216796875,-38.91154153019994,49.72993391920493,0,0,0,0,0,0,0,0,0,0,0,0
1528558083793,0,0,-2.7786259541984735,0.5648854961832062,-1.16793893129771,-0.760986328125,0.60400390625,-0.13525390625,-38.006372067390274,50.87617997503385,0,0,0,0,0,0,0,0,0,0,0,0
1528558083893,0,0,-2.9236641221374047,0.5801526717557252,-1.4122137404580153,-0.7392578125,0.62158203125,-0.140625,-39.55694936754156,49.236411680078135,0,0,0,0,0,0,0,0,0,0,0,0
1528558083993,0,0,-2.900763358778626,0.4961832061068702,-1.3282442748091603,-0.743896484375,0.59912109375,-0.146728515625,-38.31432649003269,50.335031140089434,0,0,0,0,0,0,0,0,0,0,0,0
1528558084094,0,0,-2.7557251908396947,0.6030534351145038,-1.1755725190839694,-0.738037109375,0.598388671875,-0.1455078125,-38.50124260857266,50.15802608708911,0,0,0,0,0,0,0,0,0,0,0,0
1528558084194,0,0,-2.9923664122137406,0.5190839694656488,-1.099236641221374,-0.73828125,0.60498046875,-0.156982421875,-38.713056263216835,49.74933700682581,0,0,0,0,0,0,0,0,0,0,0,0
1528558084294,0,0,-2.83206106870229,0.6335877862595419,-1.1908396946564885,-0.73583984375,0.604736328125,-0.14404296875,-38.88700945389049,49.808100712781176,0,0,0,0,0,0,0,0,0,0,0,0
1528558084395,0,0,-2.877862595419847,0.5343511450381679,-1.2671755725190839,-0.737548828125,0.603759765625,-0.14794921875,-38.751026037590876,49.875057427321174,0,0,0,0,0,0,0,0,0,0,0,0
1528558084495,0,0,-2.83206106870229,0.5954198473282443,-1.465648854961832,-0.737060546875,0.607666015625,-0.144775390625,-38.97240050896354,49.718026273355534,0,0,0,0,0,0,0,0,0,0,0,0
1528558084595,0,0,-2.969465648854962,0.5343511450381679,-1.2442748091603053,-0.73974609375,0.599365234375,-0.16259765625,-38.35599603898882,49.98600134836684,0,0,0,0,0,0,0,0,0,0,0,0
1528558084695,0,0,-2.7099236641221376,0.5038167938931297,-1.2671755725190839,-0.74072265625,0.603271484375,-0.1474609375,-38.61653183755769,50.02305450666345,0,0,0,0,0,0,0,0,0,0,0,0
1528558084795,0,0,-3.1526717557251906,0.6717557251908397,-1.16793893129771,-0.73828125,0.603515625,-0.150146484375,-38.69689035086657,49.88992563625436,0,0,0,0,0,0,0,0,0,0,0,0
1528558084896,0,0,-2.7938931297709924,0.5114503816793893,-1.2366412213740459,-0.736083984375,0.60498046875,-0.1552734375,-38.805991647085776,49.68441892095256,0,0,0,0,0,0,0,0,0,0,0,0
1528558084996,0,0,-2.954198473282443,0.46564885496183206,-1.0229007633587786,-0.74755859375,0.6044921875,-0.14990234375,-38.408758444384695,50.201854530533986,0,0,0,0,0,0,0,0,0,0,0,0
1528558085096,0,0,-3.030534351145038,0.4961832061068702,-1.2442748091603053,-0.739990234375,0.606689453125,-0.1455078125,-38.81517048580984,49.865357087688245,0,0,0,0,0,0,0,0,0,0,0,0
1528558085197,0,0,-2.648854961832061,0.5801526717557252,-1.4732824427480915,-0.7470703125,0.600830078125,-0.147216796875,-38.27603735247888,50.373937678547584,0,0,0,0,0,0,0,0,0,0,0,0
1528558085297,0,0,-3,0.6946564885496184,-1.183206106870229,-0.735107421875,0.60400390625,-0.149169921875,-38.842484841168165,49.75739938597928,0,0,0,0,-2,0,-1,0,0,0,-38,49.2
1528558085393,0,0,-3.0229007633587788,0.5038167938931297,-1.282442748091603,-0.73974609375,0.596923828125,-0.147216796875,-38.35847840052913,50.26972637247865,0,0,0,0,-2,0,-1,0,0,0,-38,49.2
1528558085494,0,0,-2.816793893129771,0.6106870229007634,-1.1221374045801527,-0.739013671875,0.604248046875,-0.149658203125,-38.707776123721395,49.891003381390476,0,0,0,0,-2,0,-1,0,0,0,-38,49.2
1528558085594,0,0,-2.931297709923664,0.5648854961832062,-1.1984732824427482,-0.735595703125,0.60498046875,-0.155517578125,-38.821890362424945,49.66291270584099,0,0,0,0,-2,0,-1,0,0,0,-38,49.2
1528558085694,0,0,-2.9236641221374047,0.48091603053435117,-1.3587786259541985,-0.737548828125,0.600830078125,-0.1650390625,-38.483689975783044,49.80871509466427,0,0,0,0,-2,0,-1,0,0,0,-38,49.2
1528558085794,0,0,-3.0381679389312977,0.6183206106870229,-1.3129770992366412,-0.740966796875,0.612060546875,-0.153076171875,-38.971035320904996,49.586540258034184,0,0,0,0,-2,0,-1,0,0,0,-38,49.2
1528558085894,0,0,-2.8244274809160306,0.46564885496183206,-1.4351145038167938,-0.742919921875,0.607421875,-0.148193359375,-38.72325436719814,49.91618667495651,0,0,0,0,-2,0,-1,0,0,0,-38,49.2
1528558085995,0,0,-3.183206106870229,0.5343511450381679,-1.099236641221374,-0.73974609375,0.595947265625,-0.144775390625,-38.33031022654286,50.33984273994095,0,0,0,0,-2,0,-1,0,0,0,-38,49.2
1528558086095,0,0,-3.0076335877862594,0.6183206106870229,-1.1526717557251909,-0.73974609375,0.614501953125,-0.14599609375,-39.17909558149595,49.50876848720173,0,0,0,0,-2,0,-1,0,0,0,-38,49.2
1528558086196,0,0,-3.1755725190839694,0.648854961832061,-1.1984732824427482,-0.74072265625,0.602294921875,-0.143310546875,-38.60085508067133,50.110488589929346,0,0,0,0,-2,0,-1,0,0,0,-38,49.2
1528558086297,0,0,-2.7099236641221376,0.5801526717557252,-1.2671755725190839,-0.738037109375,0.609130859375,-0.1474609375,-38.984714962999384,49.662778644975866,0,0,0,0,-2,0,-1,0,0,0,-38,49.2
1528558086397,0,0,-2.717557251908397,0.4732824427480916,-1.450381679389313,-0.7392578125,0.604248046875,-0.15576171875,-38.653182912322784,49.83257730051716,0,0,0,0,-2,0,-1,0,0,0,-38,49.2
1528558086497,0,0,-3.114503816793893,0.6259541984732825,-1.3282442748091603,-0.744140625,0.59814453125,-0.14892578125,-38.24434858486139,50.36350196535219,0,0,0,0,-2,0,-1,0,0,0,-38,49.2
1528558086597,0,0,-3.099236641221374,0.48091603053435117,-1.1221374045801527,-0.73876953125,0.607421875,-0.14794921875,-38.87575334866941,49.76058935638557,0,0,0,0,-2,0,-1,0,0,0,-38,49.2
1528558086697,0,0,-3.4656488549618323,0.6106870229007634,-1.0610687022900764,-0.73828125,0.612548828125,-0.149658203125,-39.116520548042445,49.49935498407148,0,0,0,0,-2,0,-1,0,0,0,-38,49.2
1528558086797,0,0,-2.4732824427480917,0.3435114503816794,-1.381679389312977,-0.732177734375,0.61767578125,-0.14599609375,-39.60188861031295,49.07930083470299,0,0,0,0,-2,0,-1,0,0,0,-38,49.2
1528558086897,0,0,-2.8091603053435112,0.6946564885496184,-1.3053435114503817,-0.73779296875,0.603759765625,-0.155029296875,-38.68926288487472,49.80623620045925,0,0,0,0,-2,0,-1,0,0,0,-38,49.2
1528558086998,0,0,-3.0763358778625953,0.6412213740458015,-1.1450381679389312,-0.741943359375,0.601806640625,-0.14697265625,-38.50790915386983,50.139447516697224,0,0,0,0,-2,0,-1,0,0,0,-38,49.2
1528558087098,0,0,-3.0381679389312977,0.4198473282442748,-1.0610687022900764,-0.736572265625,0.60205078125,-0.15283203125,-38.6710514780861,49.85929443418876,0,0,0,0,-2,0,-1,0,0,0,-38,49.2
1528558087198,0,0,-3.1908396946564888,0.7175572519083969,-1,-0.740478515625,0.61181640625,-0.149169921875,-39.006530592885035,49.62054926348148,0,0,0,0,-2,0,-1,0,0,0,-38,49.2
1528558087298,0,0,-2.8091603053435112,0.5572519083969466,-1.251908396946565,-0.7421875,0.60009765625,-0.154296875,-38.366068875953275,50.14312090779134,0,0,0,0,-2,0,-1,0,0,0,-38,49
1528558087398,0,0,-3.0229007633587788,0.5572519083969466,-1.2900763358778626,-0.734619140625,0.609619140625,-0.142578125,-39.167718795805946,49.56110486736114,0,0,0,0,-2,0,-1,0,0,0,-38,49
1528558087499,0,0,-2.6106870229007635,0.3969465648854962,-1.3435114503816794,-0.741943359375,0.601806640625,-0.162841796875,-38.388526192692346,49.9599351834626,0,0,0,0,-2,0,-1,0,0,0,-38,49
1528558087599,0,0,-3.0381679389312977,0.7099236641221374,-1.251908396946565,-0.741455078125,0.60302734375,-0.150634765625,-38.55556847715721,50.027124440196395,0,0,0,0,-2,0,-1,0,0,0,-38,49
1528558087700,0,0,-3.015267175572519,0.48854961832061067,-1.183206106870229,-0.743408203125,0.607666015625,-0.144775390625,-38.741208763614054,49.960191931419985,0,0,0,0,-2,0,-1,0,0,0,-38,49
1528558087800,0,0,-3.1297709923664123,0.6946564885496184,-1.282442748091603,-0.723876953125,0.622802734375,-0.1552734375,-40.07173616433204,48.43636616441788,0,0,0,0,-2,0,-1,0,0,0,-38,49
1528558087900,0,0,-2.9389312977099236,0.5190839694656488,-1.4045801526717556,-0.736572265625,0.594482421875,-0.150390625,-38.33618798056022,50.22198741506716,0,0,0,0,-2,0,-1,0,0,0,-38,49
1528558088000,0,0,-2.9770992366412212,0.648854961832061,-1.2442748091603053,-0.740966796875,0.6044921875,-0.149169921875,-38.651756391549085,49.96006930664051,0,0,0,0,-2,0,-1,0,0,0,-38,49
1528558088104,0,0,-2.8625954198473282,0.48854961832061067,-1.183206106870229,-0.740478515625,0.59912109375,-0.147216796875,-38.4344031838523,50.200012517548856,0,0,0,0,-2,0,-1,0,0,0,-38,49
1528558088204,0,0,-3.030534351145038,0.6717557251908397,-1.2290076335877862,-0.73486328125,0.60595703125,-0.150146484375,-38.934532097207786,49.65139524796945,0,0,0,0,-2,0,-1,0,0,0,-38,49
1528558088304,0,0,-2.9236641221374047,0.6030534351145038,-1.1755725190839694,-0.736083984375,0.602294921875,-0.153564453125,-38.69460797886455,49.82160702156055,0,0,0,0,-2,0,-1,0,0,0,-38,49
1528558088404,0,0,-3.030534351145038,0.5877862595419847,-1.3435114503816794,-0.72900390625,0.62451171875,-0.152099609375,-39.983407849200695,48.59719565842931,0,0,0,0,-2,0,-1,0,0,0,-38,49
1528558088504,0,0,-2.7099236641221376,0.3816793893129771,-1.4809160305343512,-0.739013671875,0.603271484375,-0.141845703125,-38.718663629315394,50.01743081219065,0,0,0,0,-2,0,-1,0,0,0,-38,49
1528558088604,0,0,-3.16793893129771,0.8549618320610687,-1.3053435114503817,-0.7392578125,0.620361328125,-0.145751953125,-39.46525177467233,49.238079309058755,0,0,0,0,-2,0,-1,0,0,0,-38,49
1528558088704,0,0,-2.5343511450381677,0.3893129770992366,-1.3969465648854962,-0.741455078125,0.595703125,-0.143798828125,-38.263834766731925,50.426230750286294,0,0,0,0,-2,0,-1,0,0,0,-38,49
1528558088804,0,0,-3.282442748091603,0.5648854961832062,-1.1297709923664123,-0.740234375,0.6044921875,-0.149658203125,-38.67474429537423,49.926848232695605,0,0,0,0,-2,0,-1,0,0,0,-38,49
1528558088904,0,0,-3.0076335877862594,0.5190839694656488,-1.2900763358778626,-0.7333984375,0.610107421875,-0.1416015625,-39.24214051277203,49.502583428509716,0,0,0,0,-2,0,-1,0,0,0,-38,49
1528558089004,0,0,-2.7099236641221376,0.5801526717557252,-0.9694656488549618,-0.741943359375,0.60205078125,-0.14990234375,-38.49802777172734,50.09677088921591,0,0,0,0,-2,0,-1,0,0,0,-38,49
1528558089104,0,0,-3.099236641221374,0.6946564885496184,-1.282442748091603,-0.731689453125,0.623046875,-0.143310546875,-39.8834986505449,48.854546462475014,0,0,0,0,-2,0,-1,0,0,0,-38,49
1528558089205,0,0,-2.8625954198473282,0.5267175572519084,-1.2061068702290076,-0.7431640625,0.59814453125,-0.1494140625,-38.275990217945875,50.321138359903806,0,0,0,0,-2,0,-1,0,0,0,-38,49
1528558089305,0,0,-3.1297709923664123,0.7557251908396947,-1.1068702290076335,-0.718994140625,0.609375,-0.1513671875,-39.67089747479847,48.86948405211543,0,0,0,0,-2,0,-1,0,0,0,-38,49
1528558089405,0,0,-2.946564885496183,0.7175572519083969,-1.3129770992366412,-0.744384765625,0.6015625,-0.14892578125,-38.39437522149716,50.22159731003132,0,0,0,0,-2,0,-1,0,0,0,-38,49
1528558089505,0,0,-2.8091603053435112,0.5267175572519084,-1.2213740458015268,-0.742431640625,0.60546875,-0.14990234375,-38.638483460280725,49.96491474977302,0,0,0,0,-2,0,-1,0,0,0,-38,49
1528558089605,0,0,-2.801526717557252,0.4122137404580153,-1.4580152671755726,-0.74267578125,0.609130859375,-0.143310546875,-38.84545645025897,49.883252393419944,0,0,0,0,-2,0,-1,0,0,0,-38,49
1528558089705,0,0,-2.8244274809160306,0.5648854961832062,-1.015267175572519,-0.73974609375,0.598388671875,-0.142578125,-38.4598374193514,50.254582559414416,0,0,0,0,-2,0,-1,0,0,0,-38,49
1528558089806,0,0,-2.885496183206107,0.48854961832061067,-1.183206106870229,-0.73681640625,0.607666015625,-0.149169921875,-38.94928449584881,49.66195662915358,0,0,0,0,-2,0,-1,0,0,0,-38,49
1528558089906,0,0,-3.045801526717557,0.6106870229007634,-1.2442748091603053,-0.742919921875,0.6025390625,-0.14697265625,-38.50652859771576,50.14416727428579,0,0,0,0,-2,0,-1,0,0,0,-38,49
1528558090006,0,0,-2.8396946564885495,0.5038167938931297,-1.1603053435114503,-0.7265625,0.604736328125,-0.144775390625,-39.22400241895979,49.44160916175912,0,0,0,0,-2,0,-1,0,0,0,-38,49
1528558090106,0,0,-2.8396946564885495,0.5954198473282443,-1.465648854961832,-0.742431640625,0.60400390625,-0.145751953125,-38.600717937973556,50.07404966806444,0,0,0,0,-2,0,-1,0,0,0,-38,49
1528558090206,0,0,-3.1374045801526718,0.6335877862595419,-1.1221374045801527,-0.748046875,0.60791015625,-0.127685546875,-38.69741478071026,50.29390208409467,0,0,0,0,-2,0,-1,0,0,0,-38,49
1528558090306,0,0,-2.763358778625954,0.40458015267175573,-1.2671755725190839,-0.740478515625,0.611083984375,-0.158203125,-38.904981117607484,49.55364026413375,0,0,0,0,-2,0,-1,0,0,0,-38,49
1528558090406,0,0,-3.122137404580153,0.5572519083969466,-1.1297709923664123,-0.736083984375,0.606689453125,-0.144287109375,-38.96661687437562,49.72869299928814,0,0,0,0,-2,0,-1,0,0,0,-38,49
1528558090506,0,0,-3.045801526717557,0.42748091603053434,-0.9236641221374046,-0.740966796875,0.598876953125,-0.152099609375,-38.36968023471725,50.17537967520057,0,0,0,0,-2,0,-1,0,0,0,-38,49
1528558090607,0,0,-2.549618320610687,0.4961832061068702,-1.3282442748091603,-0.745361328125,0.594970703125,-0.146484375,-38.069777927062496,50.57745811829035,0,0,0,0,-2,0,-1,0,0,0,-38,49
1528558090707,0,0,-3.114503816793893,0.6030534351145038,-1.2366412213740459,-0.739501953125,0.607421875,-0.15380859375,-38.80565072411401,49.72482091535395,0,0,0,0,-2,0,-1,0,0,0,-38,49
1528558090807,0,0,-2.9770992366412212,0.5572519083969466,-1.183206106870229,-0.738525390625,0.60205078125,-0.146484375,-38.64684493973398,50.00370282125336,0,0,0,0,-2,0,-1,0,0,0,-38,49
1528558090908,0,0,-3.198473282442748,0.6870229007633588,-1.0458015267175573,-0.736328125,0.59375,-0.1494140625,-38.31792206905011,50.256281941995894,0,0,0,0,-2,0,-1,0,0,0,-38,49
1528558091008,0,0,-3.0610687022900764,0.7633587786259542,-1.0534351145038168,-0.736328125,0.6083984375,-0.146240234375,-39.02237530046526,49.642305222322,0,0,0,0,-2,0,-1,0,0,0,-38,49
1528558091108,0,0,-2.7022900763358777,0.3893129770992366,-1.366412213740458,-0.75,0.60595703125,-0.140380859375,-38.45488824144777,50.32970674755656,0,0,0,0,-2,0,-1,0,0,0,-38,49
1528558091208,0,0,-2.984732824427481,0.6335877862595419,-1.2061068702290076,-0.74365234375,0.6044921875,-0.150634765625,-38.54395443212713,50.046164796873185,0,0,0,0,-2,0,-1,0,0,0,-38,49
1528558091308,0,0,-2.763358778625954,0.6259541984732825,-1.3129770992366412,-0.73779296875,0.60107421875,-0.14453125,-38.64220038028346,50.03990446418876,0,0,0,0,-2,0,-1,0,0,0,-38,49.2
1528558091408,0,0,-2.946564885496183,0.5801526717557252,-1.16793893129771,-0.7490234375,0.60302734375,-0.15087890625,-38.281635938695146,50.31065494787602,0,0,0,0,-2,0,-1,0,0,0,-38,49.2
1528558091508,0,0,-3.0381679389312977,0.6030534351145038,-1.251908396946565,-0.725341796875,0.60986328125,-0.151611328125,-39.45465698021606,49.09480113355845,0,0,0,0,-2,0,-1,0,0,0,-38,49.2
1528558091608,0,0,-2.9236641221374047,0.5648854961832062,-1.381679389312977,-0.74609375,0.606201171875,-0.140869140625,-38.60364680707583,50.166849036543184,0,0,0,0,-2,0,-1,0,0,0,-38,49.2
1528558091708,0,0,-2.946564885496183,0.6641221374045801,-1.2442748091603053,-0.742919921875,0.605712890625,-0.13916015625,-38.70785243528164,50.08567740443683,0,0,0,0,-2,0,-1,0,0,0,-38,49.2
1528558091808,0,0,-2.8396946564885495,0.45038167938931295,-1.0763358778625953,-0.743896484375,0.599365234375,-0.148681640625,-38.31170309148641,50.30289327885039,0,0,0,0,-2,0,-1,0,0,0,-38,49.2
1528558091908,0,0,-3.0610687022900764,0.5038167938931297,-1.2061068702290076,-0.743408203125,0.6064453125,-0.1533203125,-38.62306803550757,49.92172599101227,0,0,0,0,-2,0,-1,0,0,0,-38,49.2
1528558092008,0,0,-3.0610687022900764,0.6564885496183206,-1.2290076335877862,-0.7392578125,0.615966796875,-0.159912109375,-39.158947123030764,49.276672659630584,0,0,0,0,-2,0,-1,0,0,0,-38,49.2
1528558092108,0,0,-2.519083969465649,0.24427480916030533,-1.7633587786259541,-0.74755859375,0.60107421875,-0.144775390625,-38.286950395665265,50.40775678976701,0,0,0,0,-2,0,-1,0,0,0,-38,49.2
1528558092208,0,0,-3.213740458015267,0.6870229007633588,-0.9694656488549618,-0.74658203125,0.60693359375,-0.152099609375,-38.540354421349214,50.034016705745884,0,0,0,0,-2,0,-1,0,0,0,-38,49.2
1528558092310,0,0,-2.8931297709923665,0.45038167938931295,-1.2442748091603053,-0.739990234375,0.602783203125,-0.1494140625,-38.60627428768855,49.99547714841416,0,0,0,0,-2,0,-1,0,0,0,-38,49.2
1528558092410,0,0,-2.8702290076335877,0.5572519083969466,-1.0916030534351144,-0.735107421875,0.601318359375,-0.1455078125,-38.74466671468663,49.91573339581264,0,0,0,0,-2,0,-1,0,0,0,-38,49.2
1528558092510,0,0,-2.8625954198473282,0.46564885496183206,-1.3282442748091603,-0.733154296875,0.604736328125,-0.14892578125,-38.94977717893619,49.65257577365398,0,0,0,0,-2,0,-1,0,0,0,-38,49.2
1528558092610,0,0,-2.946564885496183,0.4351145038167939,-1.2366412213740459,-0.744140625,0.603759765625,-0.151611328125,-38.48536088272004,50.086120067980566,0,0,0,0,-2,0,-1,0,0,0,-38,49.2
1528558092711,0,0,-2.9618320610687023,0.5801526717557252,-1.3587786259541985,-0.737060546875,0.598388671875,-0.15478515625,-38.46810283431701,50.01750061672497,0,0,0,0,-2,0,-1,0,0,0,-38,49.2
1528558092811,0,0,-2.8396946564885495,0.6259541984732825,-1.2290076335877862,-0.7373046875,0.602783203125,-0.15087890625,-38.693031878159026,49.8767762705525,0,0,0,0,-2,0,-1,0,0,0,-38,49.2
1528558092912,0,0,-2.8473282442748094,0.5725190839694656,-1.2748091603053435,-0.73974609375,0.619873046875,-0.150634765625,-39.38952223741723,49.22745667861067,0,0,0,0,-2,0,-1,0,0,0,-38,49.2
1528558093012,0,0,-2.954198473282443,0.6717557251908397,-1.3282442748091603,-0.7353515625,0.605712890625,-0.146240234375,-38.934199642122756,49.722979386789476,0,0,0,0,-2,0,-1,0,0,0,-38,49.2
1528558093113,0,0,-2.9236641221374047,0.4351145038167939,-1.1755725190839694,-0.748046875,0.600341796875,-0.147705078125,-38.21491076453954,50.42697810241336,0,0,0,0,-2,0,-1,0,0,0,-38,49.2
1528558093213,0,0,-3.0763358778625953,0.7480916030534351,-1.2290076335877862,-0.736328125,0.6083984375,-0.14013671875,-39.06591214228952,49.705542847523866,0,0,0,0,-2,0,-1,0,0,0,-38,49.2
1528558093313,0,0,-2.7709923664122136,0.3282442748091603,-1.3358778625954197,-0.740478515625,0.60302734375,-0.14404296875,-38.63852169503686,50.06103671373518,0,0,0,0,-2,0,-1,0,0,0,-38,49.2
1528558093423,0,0,-2.9770992366412212,0.549618320610687,-1.1297709923664123,-0.734130859375,0.599609375,-0.153076171875,-38.64457797202264,49.87055717970833,0,0,0,0,-2,0,-1,0,0,0,-38,49.2
1528558093524,0,0,-2.7099236641221376,0.5572519083969466,-1.297709923664122,-0.7412109375,0.59423828125,-0.1474609375,-38.17807756032983,50.44232693383293,0,0,0,0,-2,0,-1,0,0,0,-38,49.2
1528558093624,0,0,-2.946564885496183,0.3969465648854962,-1.0534351145038168,-0.7412109375,0.603759765625,-0.141357421875,-38.664619877464816,50.08460951981557,0,0,0,0,-2,0,-1,0,0,0,-38,49.2
1528558093724,0,0,-2.732824427480916,0.6259541984732825,-1.2061068702290076,-0.743896484375,0.600830078125,-0.14697265625,-38.39200272566383,50.256707686542306,0,0,0,0,-2,0,-1,0,0,0,-38,49.2
1528558093824,0,0,-2.732824427480916,0.4580152671755725,-1.251908396946565,-0.739013671875,0.607421875,-0.15234375,-38.834384058338266,49.722304294267815,0,0,0,0,-2,0,-1,0,0,0,-38,49.2
1528558093924,0,0,-2.9770992366412212,0.45038167938931295,-1.1068702290076335,-0.74755859375,0.603759765625,-0.159912109375,-38.30078654099992,50.12156654701931,0,0,0,0,-2,0,-1,0,0,0,-38,49.2
1528558094024,0,0,-3.213740458015267,0.7938931297709924,-1.2595419847328244,-0.73583984375,0.61083984375,-0.15087890625,-39.11826316903154,49.46709957750683,0,0,0,0,-2,0,-1,0,0,0,-38,49.2
1528558094124,0,0,-2.687022900763359,0.48091603053435117,-1.366412213740458,-0.7392578125,0.6025390625,-0.152099609375,-38.601667023919866,49.94869029971567,0,0,0,0,-2,0,-1,0,0,0,-38,49.2
1528558094224,0,0,-3.045801526717557,0.549618320610687,-1.366412213740458,-0.73388671875,0.594482421875,-0.144775390625,-38.47522594190074,50.1813018886284,0,0,0,0,-2,0,-1,0,0,0,-38,49.2
1528558094324,0,0,-2.7709923664122136,0.5267175572519084,-1.3740458015267176,-0.745361328125,0.59765625,-0.15576171875,-38.12763702990134,50.354225483198135,0,0,0,0,-2,0,-1,0,0,0,-38,49.4
1528558094424,0,0,-2.8473282442748094,0.48854961832061067,-1.183206106870229,-0.736572265625,0.6162109375,-0.1484375,-39.35535770030921,49.287255123469514,0,0,0,0,-2,0,-1,0,0,0,-38,49.4
1528558094524,0,0,-3.1297709923664123,0.6564885496183206,-1.16793893129771,-0.736328125,0.6103515625,-0.149658203125,-39.08709376778096,49.520332332604504,0,0,0,0,-2,0,-1,0,0,0,-38,49.4
1528558094625,0,0,-3.015267175572519,0.6106870229007634,-1.450381679389313,-0.740478515625,0.599853515625,-0.14990234375,-38.44897496854409,50.13809622490849,0,0,0,0,-2,0,-1,0,0,0,-38,49.4
1528558094725,0,0,-2.7709923664122136,0.7404580152671756,-1.16793893129771,-0.738525390625,0.60400390625,-0.15283203125,-38.690612509922175,49.848133400450806,0,0,0,0,-2,0,-1,0,0,0,-38,49.4
1528558094825,0,0,-2.9160305343511452,0.648854961832061,-1.2595419847328244,-0.74072265625,0.60107421875,-0.142822265625,-38.54761811063053,50.16976452562426,0,0,0,0,-2,0,-1,0,0,0,-38,49.4
1528558094925,0,0,-2.885496183206107,0.6030534351145038,-1.1068702290076335,-0.73486328125,0.603271484375,-0.145751953125,-38.84256529317459,49.817234832740546,0,0,0,0,-2,0,-1,0,0,0,-38,49.4
1528558095025,0,0,-2.9389312977099236,0.3816793893129771,-1.282442748091603,-0.7392578125,0.60791015625,-0.15380859375,-38.83699399736949,49.69414707165593,0,0,0,0,-2,0,-1,0,0,0,-38,49.4
1528558095126,0,0,-2.9083969465648853,0.5648854961832062,-1.2671755725190839,-0.7373046875,0.610107421875,-0.148193359375,-39.05100057430475,49.58414416704837,0,0,0,0,-2,0,-1,0,0,0,-38,49.4
1528558095226,0,0,-2.9923664122137406,0.4961832061068702,-1.282442748091603,-0.743408203125,0.603759765625,-0.138916015625,-38.60150622509706,50.19315164295385,0,0,0,0,-2,0,-1,0,0,0,-38,49.4
1528558095326,0,0,-2.954198473282443,0.5648854961832062,-1.2061068702290076,-0.7490234375,0.60791015625,-0.1513671875,-38.503025015852636,50.09140721194237,0,0,0,0,-2,0,-1,0,0,0,-38,49.4
1528558095426,0,0,-3.0229007633587788,0.48854961832061067,-1.1526717557251909,-0.7392578125,0.6044921875,-0.14208984375,-38.76457674673113,49.97016379653129,0,0,0,0,-2,0,-1,0,0,0,-38,49.4
1528558095526,0,0,-3.068702290076336,0.6412213740458015,-1.2595419847328244,-0.74072265625,0.604248046875,-0.142578125,-38.69647538832412,50.031723569306514,0,0,0,0,-2,0,-1,0,0,0,-38,49.4
1528558095627,0,0,-2.8244274809160306,0.32061068702290074,-1.366412213740458,-0.739501953125,0.621337890625,-0.147216796875,-39.489925742061715,49.19026855859413,0,0,0,0,-2,0,-1,0,0,0,-38,49.4
1528558095727,0,0,-3.015267175572519,0.5572519083969466,-1.1145038167938932,-0.740478515625,0.608642578125,-0.154052734375,-38.82459191583798,49.70609706907741,0,0,0,0,-2,0,-1,0,0,0,-38,49.4
1528558095828,0,0,-2.900763358778626,0.5648854961832062,-1.2595419847328244,-0.7421875,0.61083984375,-0.144287109375,-38.934773350002885,49.77962327932653,0,0,0,0,-2,0,-1,0,0,0,-38,49.4
1528558095929,0,0,-3.0916030534351147,0.6412213740458015,-1.1374045801526718,-0.74462890625,0.605712890625,-0.144287109375,-38.6104603827605,50.097522109199296,0,0,0,0,-2,0,-1,0,0,0,-38,49.4
1528558096029,0,0,-3.0229007633587788,0.6106870229007634,-1.3435114503816794,-0.747314453125,0.59423828125,-0.153076171875,-37.9182586697539,50.60975857417547,0,0,0,0,-2,0,-1,0,0,0,-38,49.4
1528558096129,0,0,-2.8625954198473282,0.4122137404580153,-1.3358778625954197,-0.740234375,0.6025390625,-0.15087890625,-38.575335064677205,49.9994587404793,0,0,0,0,-2,0,-1,0,0,0,-38,49.4
1528558096229,0,0,-2.885496183206107,0.5801526717557252,-1.2366412213740459,-0.743408203125,0.603271484375,-0.150634765625,-38.49632547661242,50.0905714395913,0,0,0,0,-2,0,-1,0,0,0,-38,49.4
1528558096329,0,0,-3.0076335877862594,0.5572519083969466,-1.213740458015267,-0.74462890625,0.60498046875,-0.15087890625,-38.529518393061466,50.059064972060064,0,0,0,0,-2,0,-1,0,0,0,-38,49.2
1528558096429,0,0,-2.9083969465648853,0.45038167938931295,-1.2213740458015268,-0.74072265625,0.603515625,-0.147216796875,-38.629599273456726,50.014913157179784,0,0,0,0,-2,0,-1,0,0,0,-38,49.2
1528558096529,0,0,-3.0763358778625953,0.6259541984732825,-1.2748091603053435,-0.739013671875,0.5986328125,-0.14404296875,-38.487536841212474,50.20019194639665,0,0,0,0,-2,0,-1,0,0,0,-38,49.2
1528558096629,0,0,-2.7251908396946565,0.5267175572519084,-1.3740458015267176,-0.729736328125,0.597900390625,-0.1484375,-38.76081935350974,49.82860460083286,0,0,0,0,-2,0,-1,0,0,0,-38,49.2
1528558096729,0,0,-2.816793893129771,0.46564885496183206,-1.2366412213740459,-0.745361328125,0.604736328125,-0.14892578125,-38.50602526859139,50.11876803926987,0,0,0,0,-2,0,-1,0,0,0,-38,49.2
1528558096830,0,0,-2.8931297709923665,0.5725190839694656,-1.2900763358778626,-0.7421875,0.6083984375,-0.1494140625,-38.78585036123551,49.83245225130749,0,0,0,0,-2,0,-1,0,0,0,-38,49.2
1528558096930,0,0,-3.0763358778625953,0.5038167938931297,-1.1374045801526718,-0.748046875,0.6015625,-0.153076171875,-38.23284207514127,50.31393361703304,0,0,0,0,-2,0,-1,0,0,0,-38,49.2
1528558097030,0,0,-2.9389312977099236,0.5267175572519084,-1.1526717557251909,-0.734619140625,0.604736328125,-0.14892578125,-38.896088373538994,49.70899562780036,0,0,0,0,-2,0,-1,0,0,0,-38,49.2
1528558097131,0,0,-3.0381679389312977,0.6870229007633588,-1.16793893129771,-0.737060546875,0.61279296875,-0.1484375,-39.18131123588938,49.45482966006489,0,0,0,0,-2,0,-1,0,0,0,-38,49.2
1528558097231,0,0,-2.9618320610687023,0.4732824427480916,-1.4427480916030535,-0.741455078125,0.604736328125,-0.153076171875,-38.61653968181656,49.925040140421316,0,0,0,0,-2,0,-1,0,0,0,-38,49.2
1528558097331,0,0,-3.1374045801526718,0.7633587786259542,-1.16793893129771,-0.73681640625,0.60400390625,-0.154052734375,-38.74347981355132,49.769074121019564,0,0,0,0,-2,0,-1,0,0,0,-38,49.2
1528558097432,0,0,-2.816793893129771,0.4198473282442748,-1.3129770992366412,-0.74951171875,0.6083984375,-0.148681640625,-38.527210445736614,50.11739403018212,0,0,0,0,-2,0,-1,0,0,0,-38,49.2
1528558097532,0,0,-3.068702290076336,0.648854961832061,-1.1603053435114503,-0.74072265625,0.607666015625,-0.134765625,-38.907675608069574,49.959606435601174,0,0,0,0,-2,0,-1,0,0,0,-38,49.2
1528558097632,0,0,-3.0610687022900764,0.6717557251908397,-1.1526717557251909,-0.73583984375,0.619384765625,-0.142333984375,-39.5710114105121,49.18355878312605,0,0,0,0,-2,0,-1,0,0,0,-38,49.2
1528558097732,0,0,-2.8396946564885495,0.40458015267175573,-1.4122137404580153,-0.722900390625,0.607666015625,-0.15576171875,-39.41116648772599,49.049526139196594,0,0,0,0,-2,0,-1,0,0,0,-38,49.2
1528558097833,0,0,-3.1526717557251906,0.5801526717557252,-1.2290076335877862,-0.73828125,0.605712890625,-0.144775390625,-38.83763418972703,49.85081701037681,0,0,0,0,-2,0,-1,0,0,0,-38,49.2
1528558097933,0,0,-2.9389312977099236,0.6259541984732825,-1.099236641221374,-0.741455078125,0.6064453125,-0.153564453125,-38.69175929226539,49.844751066012044,0,0,0,0,-2,0,-1,0,0,0,-38,49.2
1528558098034,0,0,-2.9923664122137406,0.4732824427480916,-1.0458015267175573,-0.737060546875,0.609130859375,-0.1298828125,-39.14188408304429,49.80182683715323,0,0,0,0,-2,0,-1,0,0,0,-38,49.2
1528558098134,0,0,-2.8625954198473282,0.4961832061068702,-1.2290076335877862,-0.732177734375,0.606689453125,-0.1552734375,-39.02761727016122,49.459055583068974,0,0,0,0,-2,0,-1,0,0,0,-38,49.2
1528558098234,0,0,-2.9618320610687023,0.6564885496183206,-1.3206106870229009,-0.730712890625,0.6083984375,-0.1455078125,-39.23427944878523,49.43346697530909,0,0,0,0,-2,0,-1,0,0,0,-38,49.2
1528558098330,0,0,-2.8091603053435112,0.5190839694656488,-1.3587786259541985,-0.73583984375,0.612060546875,-0.14208984375,-39.23844988903597,49.505826349870425,0,0,0,0,-2,0,-1,0,0,0,-38.2,49.2
1528558098430,0,0,-3.0916030534351147,0.6946564885496184,-1.0610687022900764,-0.73583984375,0.6123046875,-0.142333984375,-39.24790967659452,49.492632700806666,0,0,0,0,-2,0,-1,0,0,0,-38.2,49.2
1528558098530,0,0,-2.786259541984733,0.5190839694656488,-1.2595419847328244,-0.736083984375,0.618896484375,-0.14697265625,-39.50629323798292,49.16711188104331,0,0,0,0,-2,0,-1,0,0,0,-38.2,49.2
1528558098631,0,0,-3.145038167938931,0.3969465648854962,-1.0534351145038168,-0.73876953125,0.6103515625,-0.151123046875,-38.9871168562757,49.59819348356714,0,0,0,0,-2,0,-1,0,0,0,-38.2,49.2
1528558098730,0,0,-2.931297709923664,0.4580152671755725,-1.4122137404580153,-0.73779296875,0.61181640625,-0.15576171875,-39.054753054728636,49.44624818006026,0,0,0,0,-2,0,-1,0,0,0,-38.2,49.2
1528558098831,0,0,-2.6946564885496183,0.33587786259541985,-1.4351145038167938,-0.740478515625,0.607421875,-0.148193359375,-38.81179547632001,49.82324721507024,0,0,0,0,-2,0,-1,0,0,0,-38.2,49.2
1528558098931,0,0,-2.9236641221374047,0.8702290076335878,-1.3435114503816794,-0.736328125,0.60791015625,-0.150146484375,-38.97112421767587,49.62196063763427,0,0,0,0,-2,0,-1,0,0,0,-38.2,49.2
1528558099031,0,0,-2.8702290076335877,0.6717557251908397,-1.2213740458015268,-0.74609375,0.599609375,-0.149658203125,-38.23701104350738,50.36438351336462,0,0,0,0,-2,0,-1,0,0,0,-38.2,49.2
1528558099131,0,0,-3.068702290076336,0.6946564885496184,-1.083969465648855,-0.735107421875,0.621826171875,-0.15087890625,-39.64599074507942,48.96229558096692,0,0,0,0,-2,0,-1,0,0,0,-38.2,49.2
1528558099231,0,0,-2.9083969465648853,0.48091603053435117,-1.083969465648855,-0.739990234375,0.60107421875,-0.1494140625,-38.52698003816303,50.07091351389781,0,0,0,0,-2,0,-1,0,0,0,-38.2,49.2
1528558099331,0,0,-2.8702290076335877,0.5267175572519084,-1.3587786259541985,-0.73583984375,0.624755859375,-0.152099609375,-39.742208832458566,48.85183930191282,0,0,0,0,-2,0,-1,0,0,0,-38.4,49
1528558099431,0,0,-2.9923664122137406,0.5267175572519084,-1.3969465648854962,-0.740234375,0.598876953125,-0.156494140625,-38.36307214664031,50.09752748272479,0,0,0,0,-2,0,-1,0,0,0,-38.4,49
1528558099531,0,0,-3,0.6030534351145038,-1.1374045801526718,-0.735107421875,0.602783203125,-0.15625,-38.73222659712531,49.73226385691839,0,0,0,0,-2,0,-1,0,0,0,-38.4,49
1528558099632,0,0,-3.0381679389312977,0.5343511450381679,-1.282442748091603,-0.737060546875,0.60009765625,-0.1455078125,-38.616478879339674,50.04476220769596,0,0,0,0,-2,0,-1,0,0,0,-38.4,49
1528558099732,0,0,-2.9236641221374047,0.31297709923664124,-1.1603053435114503,-0.739501953125,0.60498046875,-0.15869140625,-38.65568006370504,49.77651763658475,0,0,0,0,-2,0,-1,0,0,0,-38.4,49
1528558099832,0,0,-2.7938931297709924,0.5877862595419847,-1.2213740458015268,-0.736572265625,0.6064453125,-0.1708984375,-38.73064943753982,49.4562613737221,0,0,0,0,-2,0,-1,0,0,0,-38.4,49
1528558099932,0,0,-2.9083969465648853,0.4732824427480916,-1.2900763358778626,-0.74169921875,0.603271484375,-0.153076171875,-38.53998079130226,49.99863797485415,0,0,0,0,-2,0,-1,0,0,0,-38.4,49
1528558100032,0,0,-2.8091603053435112,0.5038167938931297,-1.282442748091603,-0.7392578125,0.624267578125,-0.167724609375,-39.47220966842609,48.83356791242332,0,0,0,0,-2,0,-1,0,0,0,-38.4,49
1528558100132,0,0,-2.8702290076335877,0.6183206106870229,-1.1603053435114503,-0.7392578125,0.599853515625,-0.146484375,-38.518076212274245,50.128985816323166,0,0,0,0,-2,0,-1,0,0,0,-38.4,49
1528558100232,0,0,-2.9923664122137406,0.4580152671755725,-1.251908396946565,-0.731689453125,0.606201171875,-0.15283203125,-39.041797807514094,49.48876662328786,0,0,0,0,-2,0,-1,0,0,0,-38.4,49
1528558100332,0,0,-2.946564885496183,0.5038167938931297,-1.2595419847328244,-0.735107421875,0.59814453125,-0.144287109375,-38.60554667265893,50.069918343862085,0,0,0,0,-2,0,-1,0,0,0,-38.4,49
1528558100432,0,0,-2.9923664122137406,0.5190839694656488,-1.251908396946565,-0.749267578125,0.6103515625,-0.156005859375,-38.57216935321895,49.94334676836991,0,0,0,0,-2,0,-1,0,0,0,-38.4,49
1528558100532,0,0,-2.8396946564885495,0.48091603053435117,-1.297709923664122,-0.739990234375,0.604736328125,-0.146240234375,-38.71971899154176,49.94362203599317,0,0,0,0,-2,0,-1,0,0,0,-38.4,49
1528558100632,0,0,-2.885496183206107,0.4732824427480916,-1.2061068702290076,-0.738037109375,0.597900390625,-0.150634765625,-38.44107209735348,50.12335123631848,0,0,0,0,-2,0,-1,0,0,0,-38.4,49
1528558100732,0,0,-3.1603053435114505,0.6335877862595419,-1.0610687022900764,-0.736328125,0.6015625,-0.14892578125,-38.68641727147355,49.914712174956,0,0,0,0,-2,0,-1,0,0,0,-38.4,49
1528558100832,0,0,-2.8091603053435112,0.48091603053435117,-1.2595419847328244,-0.73486328125,0.606201171875,-0.1572265625,-38.8917526390863,49.561989632456005,0,0,0,0,-2,0,-1,0,0,0,-38.4,49
1528558100933,0,0,-2.931297709923664,0.5877862595419847,-1.2900763358778626,-0.740234375,0.60888671875,-0.150146484375,-38.87378420485416,49.728754988087424,0,0,0,0,-2,0,-1,0,0,0,-38.4,49
1528558101033,0,0,-2.717557251908397,0.5343511450381679,-1.3893129770992367,-0.73486328125,0.602783203125,-0.16259765625,-38.69107261657911,49.64930269112351,0,0,0,0,-2,0,-1,0,0,0,-38.4,49
1528558101134,0,0,-3.015267175572519,0.6030534351145038,-1.1297709923664123,-0.7373046875,0.603759765625,-0.1494140625,-38.74915983988459,49.849803382224756,0,0,0,0,-2,0,-1,0,0,0,-38.4,49
1528558101234,0,0,-2.900763358778626,0.5267175572519084,-1.1526717557251909,-0.737548828125,0.604736328125,-0.15185546875,-38.7673172766979,49.78939545626095,0,0,0,0,-2,0,-1,0,0,0,-38.4,49
1528558101334,0,0,-2.9618320610687023,0.7404580152671756,-1.366412213740458,-0.734375,0.60107421875,-0.15087890625,-38.72047700515417,49.83978353725863,0,0,0,0,-2,0,-1,0,0,0,-38.4,49
1528558101435,0,0,-2.931297709923664,0.5877862595419847,-1.1297709923664123,-0.75,0.617919921875,-0.14208984375,-38.989959532693995,49.788992038624,0,0,0,0,-2,0,-1,0,0,0,-38.4,49
1528558101535,0,0,-2.9160305343511452,0.6870229007633588,-1.297709923664122,-0.73388671875,0.6005859375,-0.1494140625,-38.726557299562494,49.85879486965358,0,0,0,0,-2,0,-1,0,0,0,-38.4,49
1528558101635,0,0,-3.2519083969465647,0.6641221374045801,-1,-0.736572265625,0.612548828125,-0.16455078125,-39.063282103917075,49.26810877288952,0,0,0,0,-2,0,-1,0,0,0,-38.4,49
1528558101735,0,0,-3.0229007633587788,0.48091603053435117,-1.282442748091603,-0.73779296875,0.612548828125,-0.139892578125,-39.20451112170872,49.581587125654785,0,0,0,0,-2,0,-1,0,0,0,-38.4,49
1528558101835,0,0,-3.053435114503817,0.5190839694656488,-1.2061068702290076,-0.73974609375,0.599609375,-0.148193359375,-38.476624797148524,50.13980967183523,0,0,0,0,-2,0,-1,0,0,0,-38.4,49
1528558101935,0,0,-2.8473282442748094,0.44274809160305345,-1.4351145038167938,-0.7373046875,0.60791015625,-0.148681640625,-38.9463098840257,49.675221137564094,0,0,0,0,-2,0,-1,0,0,0,-38.4,49
1528558102035,0,0,-3.0381679389312977,0.5954198473282443,-1.1984732824427482,-0.738037109375,0.602783203125,-0.136962890625,-38.76542871450608,50.05193274652579,0,0,0,0,-2,0,-1,0,0,0,-38.4,49
1528558102136,0,0,-2.9236641221374047,0.6259541984732825,-1.3129770992366412,-0.739990234375,0.60595703125,-0.14501953125,-38.78486164586724,49.90276142236891,0,0,0,0,-2,0,-1,0,0,0,-38.4,49
1528558102235,0,0,-2.969465648854962,0.5114503816793893,-1.2061068702290076,-0.719482421875,0.601318359375,-0.137939453125,-39.37969956918052,49.387798732004065,0,0,0,0,-2,0,-1,0,0,0,-38.4,49
1528558102335,0,0,-2.8396946564885495,0.5877862595419847,-1.1984732824427482,-0.743896484375,0.59814453125,-0.149658203125,-38.24784594276954,50.34616681827189,0,0,0,0,-2,0,-1,0,0,0,-38.4,49
1528558102435,0,0,-2.8091603053435112,0.3893129770992366,-1.1374045801526718,-0.73974609375,0.60595703125,-0.148193359375,-38.770863341852156,49.85964623853753,0,0,0,0,-2,0,-1,0,0,0,-38.4,49
1528558102536,0,0,-2.9389312977099236,0.4961832061068702,-1.2061068702290076,-0.736083984375,0.600341796875,-0.147705078125,-38.647521425640825,49.97272546829847,0,0,0,0,-2,0,-1,0,0,0,-38.4,49
1528558102636,0,0,-2.931297709923664,0.4732824427480916,-1.3206106870229009,-0.73681640625,0.602783203125,-0.142822265625,-38.769425475065084,49.94483827082495,0,0,0,0,-2,0,-1,0,0,0,-38.4,49
1528558102736,0,0,-3.0916030534351147,0.6870229007633588,-1.2442748091603053,-0.7353515625,0.602294921875,-0.148193359375,-38.76149947100827,49.852854541940104,0,0,0,0,-2,0,-1,0,0,0,-38.4,49
1528558102836,0,0,-3.0916030534351147,0.549618320610687,-1.0916030534351144,-0.734375,0.607177734375,-0.141357421875,-39.07284377928086,49.67187183828909,0,0,0,0,-2,0,-1,0,0,0,-38.4,49
1528558102936,0,0,-2.984732824427481,0.6335877862595419,-1.3282442748091603,-0.739013671875,0.60302734375,-0.152587890625,-38.62950249586825,49.912445645943336,0,0,0,0,-2,0,-1,0,0,0,-38.4,49
1528558103036,0,0,-3.053435114503817,0.5954198473282443,-1.2595419847328244,-0.743408203125,0.602783203125,-0.1484375,-38.48967382506542,50.136075079381555,0,0,0,0,-2,0,-1,0,0,0,-38.4,49
1528558103140,0,0,-2.954198473282443,0.48091603053435117,-1.2366412213740459,-0.740234375,0.6015625,-0.1484375,-38.54792601533325,50.06932733562886,0,0,0,0,-2,0,-1,0,0,0,-38.4,49
1528558103240,0,0,-3.068702290076336,0.8702290076335878,-1.2061068702290076,-0.740234375,0.602783203125,-0.140380859375,-38.66170112048522,50.10082633605975,0,0,0,0,-2,0,-1,0,0,0,-38.4,49
1528558103340,0,0,-3.0229007633587788,0.5038167938931297,-1.3129770992366412,-0.745361328125,0.619140625,-0.154541015625,-39.12351682428593,49.43172428253206,0,0,0,0,-2,0,-1,0,0,0,-38.2,49
1528558103440,0,0,-2.816793893129771,0.549618320610687,-1.1450381679389312,-0.743408203125,0.605712890625,-0.156005859375,-38.5691857177272,49.923785697026496,0,0,0,0,-2,0,-1,0,0,0,-38.2,49
1528558103541,0,0,-2.9770992366412212,0.4198473282442748,-1.1908396946564885,-0.73828125,0.6123046875,-0.153564453125,-39.076106344745945,49.46788256112831,0,0,0,0,-2,0,-1,0,0,0,-38.2,49
1528558103641,0,0,-2.969465648854962,0.4351145038167939,-1.3358778625954197,-0.74267578125,0.59765625,-0.160888671875,-38.18470515432566,50.19276274139404,0,0,0,0,-2,0,-1,0,0,0,-38.2,49
1528558103741,0,0,-2.9236641221374047,0.5114503816793893,-1.3435114503816794,-0.730712890625,0.607666015625,-0.1513671875,-39.15657832501042,49.40279837649796,0,0,0,0,-2,0,-1,0,0,0,-38.2,49
1528558103860,0,0,-2.7709923664122136,0.549618320610687,-1.2595419847328244,-0.7333984375,0.60302734375,-0.155029296875,-38.81529867141631,49.669600817742555,0,0,0,0,-2,0,-1,0,0,0,-38.2,49
1528558103942,0,0,-2.8091603053435112,0.6030534351145038,-1.366412213740458,-0.743408203125,0.605712890625,-0.145263671875,-38.64775640491171,50.040973821271294,0,0,0,0,-2,0,-1,0,0,0,-38.2,49
1528558104071,0,0,-2.9389312977099236,0.6946564885496184,-1.297709923664122,-0.718994140625,0.6123046875,-0.144775390625,-39.85703270747675,48.81102152081042,0,0,0,0,-2,0,-1,0,0,0,-38.2,49
1528558104163,0,0,-2.7099236641221376,0.4732824427480916,-1.450381679389313,-0.739013671875,0.6025390625,-0.139892578125,-38.698289185922555,50.07016472094159,0,0,0,0,-2,0,-1,0,0,0,-38.2,49
1528558104263,0,0,-3.2519083969465647,0.6183206106870229,-1.213740458015267,-0.748779296875,0.601806640625,-0.156005859375,-38.19641382650773,50.297736132940784,0,0,0,0,-2,0,-1,0,0,0,-38.2,49
1528558104363,0,0,-2.8473282442748094,0.5267175572519084,-1.366412213740458,-0.738525390625,0.611572265625,-0.1513671875,-39.05018236781269,49.53295830858763,0,0,0,0,-2,0,-1,0,0,0,-38,49
1528558104463,0,0,-2.9236641221374047,0.5343511450381679,-1.251908396946565,-0.7421875,0.594970703125,-0.148681640625,-38.16832341603535,50.4331952938533,0,0,0,0,-2,0,-1,0,0,0,-38,49
1528558104564,0,0,-2.946564885496183,0.4198473282442748,-1.2748091603053435,-0.73486328125,0.602783203125,-0.141845703125,-38.84794152502691,49.88014212497392,0,0,0,0,-2,0,-1,0,0,0,-38,49
1528558104664,0,0,-2.969465648854962,0.6412213740458015,-1.1374045801526718,-0.742919921875,0.609375,-0.15234375,-38.78268136424268,49.78590410248672,0,0,0,0,-2,0,-1,0,0,0,-38,49
1528558104763,0,0,-2.946564885496183,0.916030534351145,-1.083969465648855,-0.744384765625,0.602294921875,-0.1416015625,-38.47992631515632,50.26737212888311,0,0,0,0,-2,0,-1,0,0,0,-38,49
1528558104864,0,0,-3.015267175572519,0.45038167938931295,-1.3206106870229009,-0.734619140625,0.603515625,-0.1435546875,-38.87871178041954,49.82035970260699,0,0,0,0,-2,0,-1,0,0,0,-38,49
1528558104964,0,0,-3.16793893129771,0.7022900763358778,-1.1755725190839694,-0.736083984375,0.6025390625,-0.156005859375,-38.68726539743902,49.7832774677999,0,0,0,0,-2,0,-1,0,0,0,-38,49
1528558105065,0,0,-2.900763358778626,0.48854961832061067,-1.297709923664122,-0.73486328125,0.59765625,-0.143798828125,-38.595171416788325,50.08756077972815,0,0,0,0,-2,0,-1,0,0,0,-38,49
1528558105165,0,0,-2.6717557251908395,0.4580152671755725,-1.5114503816793894,-0.740234375,0.59912109375,-0.152099609375,-38.40751118732171,50.13671388313659,0,0,0,0,-2,0,-1,0,0,0,-38,49
1528558105265,0,0,-3.1908396946564888,0.6793893129770993,-1.0458015267175573,-0.74072265625,0.5966796875,-0.146728515625,-38.315205558438095,50.32308664471733,0,0,0,0,-2,0,-1,0,0,0,-38,49
1528558105365,0,0,-3.3206106870229006,0.648854961832061,-1.1908396946564885,-0.75,0.609375,-0.13623046875,-38.639513930659575,50.22072213788427,0,0,0,0,-2,0,-1,0,0,0,-38,49.2
1528558105465,0,0,-2.8702290076335877,0.5954198473282443,-1.2900763358778626,-0.736572265625,0.59912109375,-0.1455078125,-38.58879798508938,50.069450770021824,0,0,0,0,-2,0,-1,0,0,0,-38,49.2
1528558105565,0,0,-2.9770992366412212,0.6717557251908397,-1.1145038167938932,-0.7392578125,0.611328125,-0.141357421875,-39.08463703884226,49.676469098989635,0,0,0,0,-2,0,-1,0,0,0,-38,49.2
1528558105665,0,0,-3.068702290076336,0.6870229007633588,-1.3053435114503817,-0.7197265625,0.613037109375,-0.15087890625,-39.81604396597338,48.743348331213376,0,0,0,0,-2,0,-1,0,0,0,-38,49.2
1528558105766,0,0,-2.6259541984732824,0.3282442748091603,-1.618320610687023,-0.73779296875,0.606201171875,-0.146484375,-38.8657035932823,49.79251799915345,0,0,0,0,-2,0,-1,0,0,0,-38,49.2
1528558105866,0,0,-3,0.4961832061068702,-1.2900763358778626,-0.741943359375,0.6015625,-0.163818359375,-38.36950447057716,49.95901996144129,0,0,0,0,-2,0,-1,0,0,0,-38,49.2
1528558105967,0,0,-3.015267175572519,0.6793893129770993,-1.1603053435114503,-0.73291015625,0.60595703125,-0.155029296875,-38.96884713212301,49.52216485229519,0,0,0,0,-2,0,-1,0,0,0,-38,49.2
1528558106067,0,0,-3.1526717557251906,0.6183206106870229,-1.1374045801526718,-0.739501953125,0.610107421875,-0.150390625,-38.954691907831,49.64477651326685,0,0,0,0,-2,0,-1,0,0,0,-38,49.2
1528558106167,0,0,-2.885496183206107,0.5038167938931297,-1.3435114503816794,-0.739990234375,0.603515625,-0.163330078125,-38.53395283383619,49.80515039872129,0,0,0,0,-2,0,-1,0,0,0,-38,49.2
1528558106267,0,0,-3.0076335877862594,0.732824427480916,-1.381679389312977,-0.731689453125,0.593994140625,-0.156005859375,-38.448365988423966,49.991785853606196,0,0,0,0,-2,0,-1,0,0,0,-38,49.2
1528558106371,0,0,-2.7099236641221376,0.35877862595419846,-1.183206106870229,-0.74609375,0.59521484375,-0.145751953125,-38.06003634780718,50.60219680199423,0,0,0,0,-2,0,-1,0,0,0,-38,49.2
1528558106469,0,0,-3.0839694656488548,0.48091603053435117,-1.0305343511450382,-0.7353515625,0.60595703125,-0.141357421875,-38.980522563918356,49.763370664986915,0,0,0,0,-2,0,-1,0,0,0,-38,49.2
1528558106569,0,0,-2.984732824427481,0.6412213740458015,-1.1374045801526718,-0.73291015625,0.5986328125,-0.155029296875,-38.628602012973424,49.84453600643944,0,0,0,0,-2,0,-1,0,0,0,-38,49.2
1528558106670,0,0,-3.0076335877862594,0.6564885496183206,-1.183206106870229,-0.7314453125,0.604248046875,-0.152099609375,-38.96593172791775,49.57328332140471,0,0,0,0,-2,0,-1,0,0,0,-38,49.2
1528558106770,0,0,-2.66412213740458,0.3511450381679389,-1.2748091603053435,-0.73876953125,0.610107421875,-0.14697265625,-39.0064239319549,49.653195526322406,0,0,0,0,-2,0,-1,0,0,0,-38,49.2
1528558106870,0,0,-2.8473282442748094,0.5038167938931297,-1.3969465648854962,-0.742919921875,0.610107421875,-0.15625,-38.78699918292001,49.710957438910214,0,0,0,0,-2,0,-1,0,0,0,-38,49.2
1528558106970,0,0,-2.8625954198473282,0.6183206106870229,-1.2366412213740459,-0.73779296875,0.608154296875,-0.138916015625,-39.009366463443634,49.784829455881805,0,0,0,0,-2,0,-1,0,0,0,-38,49.2
1528558107070,0,0,-2.900763358778626,0.5038167938931297,-0.8931297709923665,-0.73876953125,0.603271484375,-0.153076171875,-38.64600520871203,49.886939187745355,0,0,0,0,-2,0,-1,0,0,0,-38,49.2
1528558107170,0,0,-3.2748091603053435,0.6641221374045801,-1.0534351145038168,-0.72021484375,0.610107421875,-0.152099609375,-39.65320623024809,48.877537656876136,0,0,0,0,-2,0,-1,0,0,0,-38,49.2
1528558107270,0,0,-2.564885496183206,0.48854961832061067,-1.618320610687023,-0.739501953125,0.609619140625,-0.14404296875,-38.9783083135491,49.733264022575796,0,0,0,0,-2,0,-1,0,0,0,-38,49.2
1528558107370,0,0,-2.8244274809160306,0.2900763358778626,-1.2748091603053435,-0.742431640625,0.59912109375,-0.148193359375,-38.35670187870188,50.26354917129571,0,0,0,0,-2,0,-1,0,0,0,-38,49.2
1528558107471,0,0,-2.801526717557252,0.4732824427480916,-1.2748091603053435,-0.7412109375,0.60546875,-0.151611328125,-38.67008325223849,49.89979219984385,0,0,0,0,-2,0,-1,0,0,0,-38,49.2
1528558107571,0,0,-3.236641221374046,0.6717557251908397,-1.251908396946565,-0.739990234375,0.6025390625,-0.148681640625,-38.60030929160121,50.01423789629121,0,0,0,0,-2,0,-1,0,0,0,-38,49.2
1528558107672,0,0,-2.732824427480916,0.46564885496183206,-1.3358778625954197,-0.734375,0.603271484375,-0.148193359375,-38.842559348571854,49.77216948129352,0,0,0,0,-2,0,-1,0,0,0,-38,49.2
1528558107772,0,0,-3.1755725190839694,0.6412213740458015,-1.1297709923664123,-0.742919921875,0.608154296875,-0.144775390625,-38.781381648822055,49.920196217419715,0,0,0,0,-2,0,-1,0,0,0,-38,49.2
1528558107872,0,0,-2.969465648854962,0.5419847328244275,-1.213740458015267,-0.734130859375,0.611328125,-0.140380859375,-39.279885933667565,49.48952796119468,0,0,0,0,-2,0,-1,0,0,0,-38,49.2
1528558107972,0,0,-2.717557251908397,0.37404580152671757,-1.2748091603053435,-0.74072265625,0.60205078125,-0.154296875,-38.50955695274246,50.00144010929401,0,0,0,0,-2,0,-1,0,0,0,-38,49.2
1528558108076,0,0,-2.9770992366412212,0.732824427480916,-1.2748091603053435,-0.740478515625,0.604248046875,-0.169189453125,-38.50303236648988,49.72178062214708,0,0,0,0,-2,0,-1,0,0,0,-38,49.2
1528558108175,0,0,-2.8625954198473282,0.4580152671755725,-1.2290076335877862,-0.724853515625,0.604736328125,-0.1455078125,-39.282121589943976,49.36716035745471,0,0,0,0,-2,0,-1,0,0,0,-38,49.2
1528558108276,0,0,-3.1526717557251906,0.6106870229007634,-1.2442748091603053,-0.74462890625,0.605712890625,-0.150390625,-38.56686339674045,50.03226048643012,0,0,0,0,-2,0,-1,0,0,0,-38,49.2
1528558108376,0,0,-2.786259541984733,0.5343511450381679,-1.2900763358778626,-0.742431640625,0.6025390625,-0.150390625,-38.49944611188523,50.08843466862695,0,0,0,0,-2,0,-1,0,0,0,-38,49.2
1528558108476,0,0,-2.984732824427481,0.4961832061068702,-1.2061068702290076,-0.74072265625,0.619384765625,-0.140869140625,-39.40195925655996,49.385469747099854,0,0,0,0,-2,0,-1,0,0,0,-38,49.2
1528558108577,0,0,-3.053435114503817,0.4961832061068702,-1.0763358778625953,-0.73486328125,0.611328125,-0.155517578125,-39.14104696974774,49.35753677219211,0,0,0,0,-2,0,-1,0,0,0,-38,49.2
1528558108677,0,0,-2.877862595419847,0.6106870229007634,-1.3129770992366412,-0.73291015625,0.608642578125,-0.14306640625,-39.18219776728074,49.533169009244986,0,0,0,0,-2,0,-1,0,0,0,-38,49.2
1528558108777,0,0,-2.9160305343511452,0.5725190839694656,-1.2366412213740459,-0.7392578125,0.60498046875,-0.1513671875,-38.72013912079789,49.849414082837285,0,0,0,0,-2,0,-1,0,0,0,-38,49.2
1528558108877,0,0,-3.099236641221374,0.5954198473282443,-1.2366412213740459,-0.746826171875,0.60400390625,-0.152099609375,-38.39656195127959,50.17156257394571,0,0,0,0,-2,0,-1,0,0,0,-38,49.2
1528558108977,0,0,-3.0839694656488548,0.5038167938931297,-1.1068702290076335,-0.739990234375,0.604248046875,-0.151123046875,-38.66151234140102,49.912243246988204,0,0,0,0,-2,0,-1,0,0,0,-38,49.2
1528558109078,0,0,-2.8244274809160306,0.48091603053435117,-1.366412213740458,-0.7412109375,0.598388671875,-0.153076171875,-38.33087236240433,50.195243342227876,0,0,0,0,-2,0,-1,0,0,0,-38,49.2
1528558109178,0,0,-2.8625954198473282,0.5343511450381679,-1.16793893129771,-0.737548828125,0.60498046875,-0.14599609375,-38.821732500755594,49.84216129859625,0,0,0,0,-2,0,-1,0,0,0,-38,49.2
1528558109277,0,0,-3.0076335877862594,0.5267175572519084,-1.16793893129771,-0.7421875,0.605224609375,-0.1513671875,-38.62529346195886,49.950349121682116,0,0,0,0,-2,0,-1,0,0,0,-38,49.2
1528558109378,0,0,-3.0229007633587788,0.44274809160305345,-1.2290076335877862,-0.73974609375,0.60205078125,-0.146240234375,-38.60419837671137,50.052914312013115,0,0,0,0,-2,0,-1,0,0,0,-38,49.2
1528558109478,0,0,-2.854961832061069,0.5954198473282443,-1.3893129770992367,-0.73583984375,0.60498046875,-0.142333984375,-38.910504290100704,49.81519458266877,0,0,0,0,-2,0,-1,0,0,0,-38,49.2
1528558109578,0,0,-3.0916030534351147,0.48854961832061067,-1.2290076335877862,-0.737060546875,0.604736328125,-0.15234375,-38.78142121894562,49.76529077307011,0,0,0,0,-2,0,-1,0,0,0,-38,49.2
1528558109679,0,0,-2.8396946564885495,0.44274809160305345,-1.183206106870229,-0.733154296875,0.5947265625,-0.141845703125,-38.53451715865758,50.17385560467501,0,0,0,0,-2,0,-1,0,0,0,-38,49.2
1528558109779,0,0,-2.7099236641221376,0.4732824427480916,-1.2595419847328244,-0.733642578125,0.60009765625,-0.1552734375,-38.668301110487704,49.80526488888077,0,0,0,0,-2,0,-1,0,0,0,-38,49.2
1528558109878,0,0,-3.114503816793893,0.5190839694656488,-1.2061068702290076,-0.736328125,0.605712890625,-0.1552734375,-38.83096487059252,49.661702791371,0,0,0,0,-2,0,-1,0,0,0,-38,49.2
1528558109979,0,0,-2.900763358778626,0.7022900763358778,-1.1526717557251909,-0.741943359375,0.600341796875,-0.1494140625,-38.4222643388705,50.17759156375067,0,0,0,0,-2,0,-1,0,0,0,-38,49.2
1528558110079,0,0,-3.1908396946564888,0.7175572519083969,-1.0076335877862594,-0.7431640625,0.604248046875,-0.1435546875,-38.60097310558594,50.11429894731245,0,0,0,0,-2,0,-1,0,0,0,-38,49.2
1528558110179,0,0,-2.687022900763359,0.4961832061068702,-1.2900763358778626,-0.732421875,0.604248046875,-0.141357421875,-39.00924169877739,49.72624570972371,0,0,0,0,-2,0,-1,0,0,0,-38,49.2
1528558110280,0,0,-3.2595419847328246,0.6717557251908397,-1.251908396946565,-0.73828125,0.608642578125,-0.14697265625,-38.956891469500825,49.69872096434467,0,0,0,0,-2,0,-1,0,0,0,-38,49.2
1528558110380,0,0,-2.8931297709923665,0.5801526717557252,-1.1755725190839694,-0.740966796875,0.60498046875,-0.152587890625,-38.64911648353587,49.901147229539355,0,0,0,0,-2,0,-1,0,0,0,-38,49
1528558110480,0,0,-3.099236641221374,0.6335877862595419,-1.183206106870229,-0.73486328125,0.60888671875,-0.14697265625,-39.09320767787675,49.556799852958264,0,0,0,0,-2,0,-1,0,0,0,-38,49
1528558110581,0,0,-2.8244274809160306,0.5648854961832062,-1.213740458015267,-0.738525390625,0.607177734375,-0.148193359375,-38.87161134857256,49.75935781540965,0,0,0,0,-2,0,-1,0,0,0,-38,49
1528558110681,0,0,-3.0610687022900764,0.5648854961832062,-1.1526717557251909,-0.737060546875,0.61376953125,-0.1455078125,-39.24739570575656,49.44285108671395,0,0,0,0,-2,0,-1,0,0,0,-38,49
1528558110781,0,0,-2.7709923664122136,0.6870229007633588,-1.3435114503816794,-0.7431640625,0.603271484375,-0.148193359375,-38.52285455012184,50.10793757083041,0,0,0,0,-2,0,-1,0,0,0,-38,49
1528558110882,0,0,-2.8702290076335877,0.5648854961832062,-1.366412213740458,-0.741943359375,0.606689453125,-0.15283203125,-38.690829076941746,49.86075206086928,0,0,0,0,-2,0,-1,0,0,0,-38,49
1528558110982,0,0,-2.931297709923664,0.6335877862595419,-1.297709923664122,-0.73779296875,0.604736328125,-0.146484375,-38.79799449305418,49.85706846554044,0,0,0,0,-2,0,-1,0,0,0,-38,49
1528558111083,0,0,-2.931297709923664,0.5954198473282443,-1.1755725190839694,-0.737548828125,0.59423828125,-0.152099609375,-38.27658274134984,50.25082130942994,0,0,0,0,-2,0,-1,0,0,0,-38,49
1528558111183,0,0,-2.946564885496183,0.6870229007633588,-1.3053435114503817,-0.741455078125,0.611328125,-0.152099609375,-38.92708172015924,49.64764324701205,0,0,0,0,-2,0,-1,0,0,0,-38,49
1528558111283,0,0,-3.0839694656488548,0.5419847328244275,-1.3740458015267176,-0.73876953125,0.597900390625,-0.146728515625,-38.44303745201111,50.19443063104817,0,0,0,0,-2,0,-1,0,0,0,-38,49
1528558111379,0,0,-2.931297709923664,0.6183206106870229,-1.3053435114503817,-0.740478515625,0.609375,-0.1494140625,-38.89274063261843,49.724591496536455,0,0,0,0,-2,0,-1,0,0,0,-38,49
1528558111480,0,0,-2.8396946564885495,0.46564885496183206,-1.3129770992366412,-0.737060546875,0.6064453125,-0.13916015625,-38.955705011027916,49.8298315322106,0,0,0,0,-2,0,-1,0,0,0,-38,49
1528558111580,0,0,-3.045801526717557,0.7404580152671756,-1.2061068702290076,-0.748046875,0.600830078125,-0.161376953125,-38.136738926792326,50.250868811837556,0,0,0,0,-2,0,-1,0,0,0,-38,49
1528558111680,0,0,-3,0.6717557251908397,-1.251908396946565,-0.737548828125,0.602294921875,-0.156982421875,-38.61524865704573,49.83901088727483,0,0,0,0,-2,0,-1,0,0,0,-38,49
1528558111780,0,0,-2.946564885496183,0.549618320610687,-1.2061068702290076,-0.740966796875,0.608154296875,-0.1513671875,-38.804503081712085,49.775508702372086,0,0,0,0,-2,0,-1,0,0,0,-38,49
1528558111880,0,0,-3.0229007633587788,0.6946564885496184,-1.2442748091603053,-0.735595703125,0.610107421875,-0.145263671875,-39.134963692231,49.54938584106089,0,0,0,0,-2,0,-1,0,0,0,-38,49
1528558111980,0,0,-2.9618320610687023,0.8244274809160306,-1.3129770992366412,-0.733642578125,0.611328125,-0.14599609375,-39.25750441470818,49.412973630466134,0,0,0,0,-2,0,-1,0,0,0,-38,49
1528558112080,0,0,-3.0076335877862594,0.5419847328244275,-1.1908396946564885,-0.74951171875,0.60400390625,-0.14111328125,-38.37743956943995,50.39006148435113,0,0,0,0,-2,0,-1,0,0,0,-38,49
1528558112180,0,0,-2.8702290076335877,0.5190839694656488,-1.3282442748091603,-0.736328125,0.6103515625,-0.143798828125,-39.12986466391114,49.582046580066375,0,0,0,0,-2,0,-1,0,0,0,-38,49
1528558112280,0,0,-3.099236641221374,0.5877862595419847,-1.0458015267175573,-0.7421875,0.603271484375,-0.15478515625,-38.50957359469656,49.998058605042594,0,0,0,0,-2,0,-1,0,0,0,-38,49
1528558112381,0,0,-3,0.4198473282442748,-1.2442748091603053,-0.7412109375,0.62158203125,-0.141845703125,-39.47680974811621,49.29914135012709,0,0,0,0,-2,0,-1,0,0,0,-38,49
1528558112482,0,0,-2.854961832061069,0.7022900763358778,-1.16793893129771,-0.74462890625,0.59765625,-0.1484375,-38.20754510437314,50.40898974465202,0,0,0,0,-2,0,-1,0,0,0,-38,49
1528558112582,0,0,-3.114503816793893,0.7404580152671756,-1.251908396946565,-0.740966796875,0.62158203125,-0.14501953125,-39.463274568698395,49.25811806405457,0,0,0,0,-2,0,-1,0,0,0,-38,49
1528558112682,0,0,-2.954198473282443,0.44274809160305345,-1.2595419847328244,-0.7431640625,0.599365234375,-0.145263671875,-38.362508473744576,50.31229748503226,0,0,0,0,-2,0,-1,0,0,0,-38,49
1528558112782,0,0,-2.9770992366412212,0.6717557251908397,-1.2900763358778626,-0.739990234375,0.604736328125,-0.152099609375,-38.67683698668523,49.88002792589191,0,0,0,0,-2,0,-1,0,0,0,-38,49
1528558112882,0,0,-2.8702290076335877,0.6030534351145038,-1.297709923664122,-0.73876953125,0.600830078125,-0.15087890625,-38.54912099494473,50.018965138440805,0,0,0,0,-2,0,-1,0,0,0,-38,49
1528558112982,0,0,-3,0.6335877862595419,-1.1297709923664123,-0.73779296875,0.6064453125,-0.146484375,-38.87697592359643,49.78177068617689,0,0,0,0,-2,0,-1,0,0,0,-38,49
1528558113087,0,0,-2.7938931297709924,0.5877862595419847,-1.3435114503816794,-0.744140625,0.6103515625,-0.1455078125,-38.83286023579182,49.862546408962025,0,0,0,0,-2,0,-1,0,0,0,-38,49
1528558113187,0,0,-2.8625954198473282,0.7480916030534351,-1.4198473282442747,-0.74072265625,0.602783203125,-0.15625,-38.52871812088378,49.94715974099198,0,0,0,0,-2,0,-1,0,0,0,-38,49
1528558113287,0,0,-2.763358778625954,0.40458015267175573,-1.16793893129771,-0.73779296875,0.603515625,-0.140380859375,-38.78481878650787,49.97515351516021,0,0,0,0,-2,0,-1,0,0,0,-38,49
1528558113387,0,0,-2.9923664122137406,0.6412213740458015,-1.2442748091603053,-0.7373046875,0.604248046875,-0.16943359375,-38.614995982541046,49.59738325592031,0,0,0,0,-2,0,-1,0,0,0,-38,49
1528558113487,0,0,-2.7709923664122136,0.44274809160305345,-1.3587786259541985,-0.739013671875,0.60595703125,-0.154296875,-38.752123598335885,49.76482410883357,0,0,0,0,-2,0,-1,0,0,0,-38,49
1528558113588,0,0,-3.114503816793893,0.4198473282442748,-1.282442748091603,-0.735107421875,0.603759765625,-0.146240234375,-38.85271286652738,49.79980576677435,0,0,0,0,-2,0,-1,0,0,0,-38,49
1528558113688,0,0,-3.0229007633587788,0.4961832061068702,-1.2061068702290076,-0.73779296875,0.60498046875,-0.153564453125,-38.756866611871565,49.76908133347311,0,0,0,0,-2,0,-1,0,0,0,-38,49
1528558113788,0,0,-2.969465648854962,0.6946564885496184,-1.2061068702290076,-0.73828125,0.603271484375,-0.155517578125,-38.645215117432365,49.8408390304772,0,0,0,0,-2,0,-1,0,0,0,-38,49
1528558113889,0,0,-3.0610687022900764,0.48854961832061067,-1.282442748091603,-0.739990234375,0.6005859375,-0.150390625,-38.49712419072643,50.08172244636053,0,0,0,0,-2,0,-1,0,0,0,-38,49
1528558113989,0,0,-2.931297709923664,0.48091603053435117,-1.3053435114503817,-0.734619140625,0.603271484375,-0.148193359375,-38.83362034236229,49.781559727245444,0,0,0,0,-2,0,-1,0,0,0,-38,49
1528558114089,0,0,-2.900763358778626,0.648854961832061,-1.16793893129771,-0.741455078125,0.6083984375,-0.14599609375,-38.837116293954864,49.84094309723432,0,0,0,0,-2,0,-1,0,0,0,-38,49
1528558114190,0,0,-2.9083969465648853,0.6106870229007634,-1.083969465648855,-0.748291015625,0.6005859375,-0.153076171875,-38.17887924945703,50.36607206675812,0,0,0,0,-2,0,-1,0,0,0,-38,49
1528558114290,0,0,-2.931297709923664,0.5267175572519084,-1.16793893129771,-0.73486328125,0.608642578125,-0.14404296875,-39.10326268348252,49.59830478306149,0,0,0,0,-2,0,-1,0,0,0,-38,49
1528558114390,0,0,-3.0076335877862594,0.48854961832061067,-1.16793893129771,-0.75,0.6220703125,-0.15283203125,-39.10161111749999,49.49960930802523,0,0,0,0,-2,0,-1,0,0,0,-38,49
1528558114490,0,0,-3.0229007633587788,0.6335877862595419,-1.3511450381679388,-0.74072265625,0.609130859375,-0.1455078125,-38.900926167669844,49.78601952874923,0,0,0,0,-2,0,-1,0,0,0,-38,49
1528558114590,0,0,-2.877862595419847,0.5419847328244275,-1.3129770992366412,-0.744384765625,0.603515625,-0.155517578125,-38.43631035626648,50.062480698643135,0,0,0,0,-2,0,-1,0,0,0,-38,49
1528558114690,0,0,-3.053435114503817,0.7709923664122137,-1.366412213740458,-0.74951171875,0.62158203125,-0.152587890625,-39.09891220469551,49.50470960283343,0,0,0,0,-2,0,-1,0,0,0,-38,49
1528558114791,0,0,-2.931297709923664,0.6335877862595419,-1.2595419847328244,-0.739990234375,0.60400390625,-0.14892578125,-38.66637857372897,49.9469990129703,0,0,0,0,-2,0,-1,0,0,0,-38,49
1528558114891,0,0,-2.83206106870229,0.5801526717557252,-1.1221374045801527,-0.718994140625,0.602783203125,-0.149658203125,-39.37839851522175,49.17878301019522,0,0,0,0,-2,0,-1,0,0,0,-38,49
1528558114991,0,0,-3.0381679389312977,0.6183206106870229,-1.2748091603053435,-0.7353515625,0.624755859375,-0.146728515625,-39.80029445444364,48.88820269795489,0,0,0,0,-2,0,-1,0,0,0,-38,49
1528558115091,0,0,-2.9618320610687023,0.5877862595419847,-1.213740458015267,-0.74462890625,0.603515625,-0.14111328125,-38.530965306404596,50.227618122971045,0,0,0,0,-2,0,-1,0,0,0,-38,49
1528558115191,0,0,-3.2061068702290076,0.5648854961832062,-1.16793893129771,-0.732177734375,0.608642578125,-0.141845703125,-39.21799603896522,49.5174733509391,0,0,0,0,-2,0,-1,0,0,0,-38,49
1528558115291,0,0,-2.8091603053435112,0.6259541984732825,-1.366412213740458,-0.719970703125,0.6240234375,-0.156982421875,-40.25920278304465,48.211585618333466,0,0,0,0,-2,0,-1,0,0,0,-38,49
1528558115392,0,0,-2.5801526717557253,0.37404580152671757,-1.3893129770992367,-0.748291015625,0.59521484375,-0.155517578125,-37.91112943875626,50.57517885109503,0,0,0,0,-2,0,-1,0,0,0,-38.2,49
1528558115492,0,0,-3.0916030534351147,0.5954198473282443,-0.9007633587786259,-0.73974609375,0.603515625,-0.154296875,-38.61273340367792,49.89984504490519,0,0,0,0,-2,0,-1,0,0,0,-38.2,49
1528558115591,0,0,-3.0381679389312977,0.6564885496183206,-0.9770992366412213,-0.733642578125,0.61328125,-0.145751953125,-39.34887200071742,49.33005078000267,0,0,0,0,-2,0,-1,0,0,0,-38.2,49
1528558115692,0,0,-2.885496183206107,0.5877862595419847,-1.183206106870229,-0.740966796875,0.601806640625,-0.144775390625,-38.55898558438851,50.12588287686425,0,0,0,0,-2,0,-1,0,0,0,-38.2,49
1528558115792,0,0,-2.9160305343511452,0.6106870229007634,-1.2442748091603053,-0.734130859375,0.596923828125,-0.138916015625,-38.6222434843888,50.14383527568203,0,0,0,0,-2,0,-1,0,0,0,-38.2,49
1528558115892,0,0,-2.7480916030534353,0.5801526717557252,-1.381679389312977,-0.7421875,0.602294921875,-0.150390625,-38.49695226685264,50.08991781923653,0,0,0,0,-2,0,-1,0,0,0,-38.2,49
1528558115992,0,0,-2.946564885496183,0.5954198473282443,-1.1755725190839694,-0.736083984375,0.60009765625,-0.143310546875,-38.66789671756748,50.030858371537626,0,0,0,0,-2,0,-1,0,0,0,-38.2,49
1528558116093,0,0,-3,0.5648854961832062,-1.16793893129771,-0.7353515625,0.603271484375,-0.1416015625,-38.854408029255175,49.87977699324491,0,0,0,0,-2,0,-1,0,0,0,-38.2,49
1528558116193,0,0,-2.954198473282443,0.6870229007633588,-1.1068702290076335,-0.735595703125,0.619140625,-0.1298828125,-39.654137060925315,49.304244934241886,0,0,0,0,-2,0,-1,0,0,0,-38.2,49
1528558116293,0,0,-2.7251908396946565,0.48091603053435117,-1.3740458015267176,-0.739501953125,0.59521484375,-0.1474609375,-38.28565025101007,50.333829578820676,0,0,0,0,-2,0,-1,0,0,0,-38.2,49
1528558116393,0,0,-3.0076335877862594,0.5267175572519084,-1.2366412213740459,-0.737060546875,0.6044921875,-0.154541015625,-38.75348698761723,49.75152770281607,0,0,0,0,-2,0,-1,0,0,0,-38.2,49
1528558116492,0,0,-2.7557251908396947,0.5419847328244275,-1.2061068702290076,-0.734130859375,0.60498046875,-0.14892578125,-38.92527502187896,49.679446705948536,0,0,0,0,-2,0,-1,0,0,0,-38.2,49
1528558116593,0,0,-2.8702290076335877,0.48091603053435117,-1.3206106870229009,-0.7451171875,0.59765625,-0.14990234375,-38.17945448109927,50.41123109344124,0,0,0,0,-2,0,-1,0,0,0,-38.2,49
1528558116693,0,0,-2.900763358778626,0.3816793893129771,-1.4427480916030535,-0.720458984375,0.602783203125,-0.14599609375,-39.351704786115576,49.276279426769435,0,0,0,0,-2,0,-1,0,0,0,-38.2,49
1528558116793,0,0,-3.0076335877862594,0.6030534351145038,-1.251908396946565,-0.735595703125,0.603759765625,-0.1474609375,-38.82591881536004,49.80544693635245,0,0,0,0,-2,0,-1,0,0,0,-38.2,49
1528558116893,0,0,-2.763358778625954,0.549618320610687,-1.3206106870229009,-0.743896484375,0.601806640625,-0.15283203125,-38.39475770491692,50.149186836640936,0,0,0,0,-2,0,-1,0,0,0,-38.2,49
1528558116994,0,0,-2.984732824427481,0.44274809160305345,-1.1374045801526718,-0.736572265625,0.60009765625,-0.15234375,-38.58393612767001,49.950937066240805,0,0,0,0,-2,0,-1,0,0,0,-38.2,49
1528558117094,0,0,-2.8091603053435112,0.6106870229007634,-1.3053435114503817,-0.736083984375,0.60400390625,-0.150390625,-38.797733632313694,49.78156720974139,0,0,0,0,-2,0,-1,0,0,0,-38.2,49
1528558117193,0,0,-2.9923664122137406,0.6183206106870229,-1.2061068702290076,-0.737060546875,0.61767578125,-0.150634765625,-39.38785472847566,49.21939080139452,0,0,0,0,-2,0,-1,0,0,0,-38.2,49
1528558117294,0,0,-2.9389312977099236,0.46564885496183206,-1.3740458015267176,-0.74169921875,0.608642578125,-0.1455078125,-38.842961008141216,49.84465790153482,0,0,0,0,-2,0,-1,0,0,0,-38.2,49
1528558117394,0,0,-2.931297709923664,0.6183206106870229,-1.1908396946564885,-0.735595703125,0.6103515625,-0.14306640625,-39.16200168667565,49.5614573772957,0,0,0,0,-2,0,-1,0,0,0,-38.2,49
1528558117494,0,0,-2.7709923664122136,0.3816793893129771,-1.4045801526717556,-0.740478515625,0.59912109375,-0.151611328125,-38.402305580667274,50.151480157005636,0,0,0,0,-2,0,-1,0,0,0,-38.2,49
1528558117594,0,0,-2.8091603053435112,0.5954198473282443,-1.3129770992366412,-0.73876953125,0.605224609375,-0.14892578125,-38.76719670951085,49.8466548456031,0,0,0,0,-2,0,-1,0,0,0,-38.2,49
1528558117694,0,0,-2.8396946564885495,0.366412213740458,-1.1908396946564885,-0.7353515625,0.604736328125,-0.150634765625,-38.85656581658801,49.7185204087524,0,0,0,0,-2,0,-1,0,0,0,-38.2,49
1528558117794,0,0,-2.8244274809160306,0.4122137404580153,-1.2671755725190839,-0.73486328125,0.603271484375,-0.148193359375,-38.82468468366055,49.79094633472487,0,0,0,0,-2,0,-1,0,0,0,-38.2,49
1528558117894,0,0,-2.900763358778626,0.6870229007633588,-1.2671755725190839,-0.73486328125,0.60791015625,-0.150634765625,-39.02103553600453,49.56034762438881,0,0,0,0,-2,0,-1,0,0,0,-38.2,49
1528558117994,0,0,-2.900763358778626,0.6564885496183206,-1.083969465648855,-0.749267578125,0.60546875,-0.1533203125,-38.367820117225044,50.185863064351715,0,0,0,0,-2,0,-1,0,0,0,-38.2,49
1528558118094,0,0,-2.6793893129770994,0.40458015267175573,-1.2213740458015268,-0.743896484375,0.60205078125,-0.14599609375,-38.455564308138406,50.213249597428934,0,0,0,0,-2,0,-1,0,0,0,-38.2,49
1528558118195,0,0,-2.946564885496183,0.5877862595419847,-1.1450381679389312,-0.74072265625,0.601806640625,-0.147705078125,-38.54686179919386,50.08509863759188,0,0,0,0,-2,0,-1,0,0,0,-38.2,49
1528558118295,0,0,-2.946564885496183,0.5801526717557252,-1.1908396946564885,-0.74072265625,0.6103515625,-0.14501953125,-38.9604835683666,49.73759546134979,0,0,0,0,-2,0,-1,0,0,0,-38.2,49
1528558118395,0,0,-3.068702290076336,0.5648854961832062,-1.1450381679389312,-0.741455078125,0.62158203125,-0.15185546875,-39.39556071691535,49.206383003687066,0,0,0,0,-2,0,-1,0,0,0,-38.2,49
1528558118495,0,0,-3.045801526717557,0.6717557251908397,-1.2595419847328244,-0.743408203125,0.605712890625,-0.14111328125,-38.676736253611445,50.08423701838349,0,0,0,0,-2,0,-1,0,0,0,-38.2,49
1528558118595,0,0,-2.9770992366412212,0.5725190839694656,-1.183206106870229,-0.738525390625,0.605224609375,-0.152099609375,-38.7525595630905,49.80263325073881,0,0,0,0,-2,0,-1,0,0,0,-38.2,49
1528558118696,0,0,-2.6946564885496183,0.48854961832061067,-1.3206106870229009,-0.743408203125,0.5986328125,-0.14111328125,-38.34850498623526,50.39820410394024,0,0,0,0,-2,0,-1,0,0,0,-38.2,49
1528558118796,0,0,-2.7786259541984735,0.4732824427480916,-1.2061068702290076,-0.737060546875,0.60693359375,-0.156005859375,-38.855049211455935,49.62818502595965,0,0,0,0,-2,0,-1,0,0,0,-38.2,49
1528558118896,0,0,-3,0.4351145038167939,-1.1297709923664123,-0.739013671875,0.60693359375,-0.148193359375,-38.84256862249648,49.788752756373356,0,0,0,0,-2,0,-1,0,0,0,-38.2,49
1528558118996,0,0,-3.030534351145038,0.4580152671755725,-1.1068702290076335,-0.7421875,0.6044921875,-0.152099609375,-38.58605409575943,49.97443216881164,0,0,0,0,-2,0,-1,0,0,0,-38.2,49
1528558119096,0,0,-2.7709923664122136,0.4198473282442748,-1.2366412213740459,-0.746337890625,0.60791015625,-0.135986328125,-38.70628260594309,50.14978689701798,0,0,0,0,-2,0,-1,0,0,0,-38.2,49
1528558119197,0,0,-2.854961832061069,0.45038167938931295,-1.1908396946564885,-0.73974609375,0.602294921875,-0.169921875,-38.43291172103277,49.76966472581039,0,0,0,0,-2,0,-1,0,0,0,-38.2,49
1528558119297,0,0,-2.8931297709923665,0.5190839694656488,-1.2748091603053435,-0.722900390625,0.611572265625,-0.1416015625,-39.70015518851037,49.029649137858634,0,0,0,0,-2,0,-1,0,0,0,-38.2,49
1528558119397,0,0,-2.5267175572519083,0.31297709923664124,-1.4351145038167938,-0.74267578125,0.598876953125,-0.16064453125,-38.243419049612555,50.142013134466005,0,0,0,0,-2,0,-1,0,0,0,-38.2,49
1528558119497,0,0,-3.16793893129771,0.6335877862595419,-1.1450381679389312,-0.73681640625,0.6064453125,-0.1435546875,-38.933752876669345,49.77522295469244,0,0,0,0,-2,0,-1,0,0,0,-38.2,49
1528558119597,0,0,-2.6564885496183206,0.3969465648854962,-1.4274809160305344,-0.744384765625,0.60693359375,-0.1552734375,-38.595803121235,49.915736893817325,0,0,0,0,-2,0,-1,0,0,0,-38.2,49
1528558119697,0,0,-2.7786259541984735,0.648854961832061,-1.465648854961832,-0.739013671875,0.60400390625,-0.16259765625,-38.59752596332502,49.75517093784604,0,0,0,0,-2,0,-1,0,0,0,-38.2,49
1528558119798,0,0,-2.7022900763358777,0.33587786259541985,-1.3053435114503817,-0.738525390625,0.6044921875,-0.14453125,-38.774022927161106,49.91660370250378,0,0,0,0,-2,0,-1,0,0,0,-38.2,49
1528558119898,0,0,-2.854961832061069,0.5801526717557252,-1.1374045801526718,-0.73828125,0.604736328125,-0.147705078125,-38.77132267708411,49.8626601397529,0,0,0,0,-2,0,-1,0,0,0,-38.2,49
1528558119999,0,0,-2.9160305343511452,0.5419847328244275,-1.1908396946564885,-0.739990234375,0.596435546875,-0.14111328125,-38.36997645917264,50.36653314538994,0,0,0,0,-2,0,-1,0,0,0,-38.2,49
1528558120099,0,0,-2.946564885496183,0.8244274809160306,-1.3893129770992367,-0.74169921875,0.604736328125,-0.127197265625,-38.78561955097754,50.199631012434025,0,0,0,0,-2,0,-1,0,0,0,-38.2,49
1528558120199,0,0,-3.122137404580153,0.7251908396946565,-1.282442748091603,-0.73583984375,0.607421875,-0.144775390625,-39.0058566954953,49.68192581750706,0,0,0,0,-2,0,-1,0,0,0,-38.2,49
1528558120300,0,0,-2.6793893129770994,0.4351145038167939,-1.5114503816793894,-0.743896484375,0.607177734375,-0.142578125,-38.716418128386586,50.023057497562,0,0,0,0,-2,0,-1,0,0,0,-38.2,49
1528558120400,0,0,-3.0916030534351147,0.7480916030534351,-1.2061068702290076,-0.739501953125,0.604248046875,-0.142333984375,-38.74265921466459,49.98773959343737,0,0,0,0,-2,0,-1,0,0,0,-38,49
1528558120500,0,0,-2.732824427480916,0.4732824427480916,-1.4885496183206106,-0.73681640625,0.6123046875,-0.150390625,-39.15339377539067,49.445970892587354,0,0,0,0,-2,0,-1,0,0,0,-38,49
1528558120600,0,0,-2.9770992366412212,0.6793893129770993,-1.1297709923664123,-0.740234375,0.603759765625,-0.156982421875,-38.585959257164035,49.877401452853384,0,0,0,0,-2,0,-1,0,0,0,-38,49
1528558120700,0,0,-2.8625954198473282,0.7022900763358778,-1.2748091603053435,-0.743896484375,0.60595703125,-0.14404296875,-38.649935701907125,50.0615765668676,0,0,0,0,-2,0,-1,0,0,0,-38,49
1528558120799,0,0,-2.885496183206107,0.549618320610687,-1.1908396946564885,-0.737548828125,0.600830078125,-0.152099609375,-38.58434474703339,49.95871705091632,0,0,0,0,-2,0,-1,0,0,0,-38,49
1528558120900,0,0,-2.9083969465648853,0.4732824427480916,-1.2366412213740459,-0.740478515625,0.6044921875,-0.15234375,-38.64604401958675,49.90667104507402,0,0,0,0,-2,0,-1,0,0,0,-38,49
1528558121000,0,0,-2.763358778625954,0.5038167938931297,-1.16793893129771,-0.748291015625,0.604248046875,-0.1494140625,-38.374735798427686,50.245477400732916,0,0,0,0,-2,0,-1,0,0,0,-38,49
1528558121100,0,0,-2.9236641221374047,0.6793893129770993,-1.1145038167938932,-0.741455078125,0.624267578125,-0.150390625,-39.52763567547201,49.106240043262524,0,0,0,0,-2,0,-1,0,0,0,-38,49
1528558121200,0,0,-2.8473282442748094,0.549618320610687,-1.1908396946564885,-0.739013671875,0.601806640625,-0.153564453125,-38.56556391490425,49.955247524190185,0,0,0,0,-2,0,-1,0,0,0,-38,49
1528558121301,0,0,-3.030534351145038,0.7022900763358778,-1.2290076335877862,-0.73876953125,0.60498046875,-0.146240234375,-38.77544470732452,49.88625500955812,0,0,0,0,-2,0,-1,0,0,0,-38,49
1528558121402,0,0,-2.8931297709923665,0.5877862595419847,-1.0381679389312977,-0.741943359375,0.602783203125,-0.153564453125,-38.50492017220596,50.023922955889624,0,0,0,0,-2,0,-1,0,0,0,-38,49
1528558121502,0,0,-2.801526717557252,0.6030534351145038,-1.183206106870229,-0.749267578125,0.604248046875,-0.1474609375,-38.353618728292076,50.30329906322307,0,0,0,0,-2,0,-1,0,0,0,-38,49
1528558121602,0,0,-3,0.6030534351145038,-1.183206106870229,-0.738037109375,0.603515625,-0.1484375,-38.71835187617714,49.8992233557966,0,0,0,0,-2,0,-1,0,0,0,-38,49
1528558121702,0,0,-2.786259541984733,0.42748091603053434,-1.282442748091603,-0.745849609375,0.60205078125,-0.151123046875,-38.34840558240324,50.2313198888651,0,0,0,0,-2,0,-1,0,0,0,-38,49
1528558121803,0,0,-3.114503816793893,0.8244274809160306,-1.1297709923664123,-0.74560546875,0.6220703125,-0.147705078125,-39.29728337795668,49.38652035664647,0,0,0,0,-2,0,-1,0,0,0,-38,49
1528558121903,0,0,-2.618320610687023,0.3969465648854962,-1.4351145038167938,-0.73486328125,0.61376953125,-0.143310546875,-39.343968716571254,49.38092675254392,0,0,0,0,-2,0,-1,0,0,0,-38,49
1528558122003,0,0,-2.8396946564885495,0.46564885496183206,-1.251908396946565,-0.746826171875,0.599609375,-0.151123046875,-38.200170650152856,50.37577480252266,0,0,0,0,-2,0,-1,0,0,0,-38,49
1528558122103,0,0,-2.954198473282443,0.5267175572519084,-1.16793893129771,-0.748779296875,0.595947265625,-0.143310546875,-38.01485487130596,50.69689947695534,0,0,0,0,-2,0,-1,0,0,0,-38,49
1528558122204,0,0,-2.801526717557252,0.48854961832061067,-1.2366412213740459,-0.737548828125,0.60888671875,-0.1416015625,-39.033328057437785,49.71589457417023,0,0,0,0,-2,0,-1,0,0,0,-38,49
1528558122304,0,0,-3.1297709923664123,0.5190839694656488,-1.1603053435114503,-0.73388671875,0.611328125,-0.1484375,-39.230511769989846,49.396659225440565,0,0,0,0,-2,0,-1,0,0,0,-38,49
1528558122404,0,0,-2.8091603053435112,0.37404580152671757,-1.4732824427480915,-0.72265625,0.6015625,-0.15087890625,-39.17527194971202,49.36328433020716,0,0,0,0,-2,0,-1,0,0,0,-38,49
1528558122504,0,0,-3.045801526717557,0.7862595419847328,-0.9923664122137404,-0.7373046875,0.609130859375,-0.144287109375,-39.034437969027735,49.66807100622387,0,0,0,0,-2,0,-1,0,0,0,-38,49
1528558122604,0,0,-2.7404580152671754,0.5038167938931297,-1.213740458015267,-0.739990234375,0.5947265625,-0.154052734375,-38.19657322511756,50.299855183817506,0,0,0,0,-2,0,-1,0,0,0,-38,49
1528558122704,0,0,-3.0229007633587788,0.5725190839694656,-1.3358778625954197,-0.73876953125,0.611328125,-0.1337890625,-39.15422447337809,49.73273779505555,0,0,0,0,-2,0,-1,0,0,0,-38,49
1528558122803,0,0,-2.8244274809160306,0.6717557251908397,-1.297709923664122,-0.74169921875,0.604248046875,-0.146240234375,-38.63507601074243,50.030238999484084,0,0,0,0,-2,0,-1,0,0,0,-38,49
1528558122904,0,0,-2.9389312977099236,0.5419847328244275,-1.1297709923664123,-0.7412109375,0.60302734375,-0.146728515625,-38.59278589695477,50.06030126824896,0,0,0,0,-2,0,-1,0,0,0,-38,49
1528558123004,0,0,-2.732824427480916,0.3816793893129771,-1.3435114503816794,-0.739501953125,0.60595703125,-0.1435546875,-38.81306359631784,49.899505604425784,0,0,0,0,-2,0,-1,0,0,0,-38,49
1528558123104,0,0,-2.954198473282443,0.6641221374045801,-1.4732824427480915,-0.738525390625,0.59521484375,-0.14453125,-38.34210482959984,50.32868708533376,0,0,0,0,-2,0,-1,0,0,0,-38,49
1528558123205,0,0,-2.984732824427481,0.6717557251908397,-1.1450381679389312,-0.732666015625,0.60400390625,-0.128662109375,-39.07546327940754,49.87286298862676,0,0,0,0,-2,0,-1,0,0,0,-38,49
1528558123305,0,0,-2.9770992366412212,0.7175572519083969,-1.2671755725190839,-0.7333984375,0.604736328125,-0.15234375,-38.91509722803994,49.62451007537344,0,0,0,0,-2,0,-1,0,0,0,-38,49
1528558123405,0,0,-3,0.6106870229007634,-1.3435114503816794,-0.73681640625,0.611572265625,-0.151123046875,-39.114346184691755,49.470038937553724,0,0,0,0,-2,0,-1,0,0,0,-38,49
1528558123505,0,0,-2.8396946564885495,0.549618320610687,-1.2900763358778626,-0.7412109375,0.605224609375,-0.147705078125,-38.68738891273057,49.95295475687732,0,0,0,0,-2,0,-1,0,0,0,-38,49
1528558123605,0,0,-2.8931297709923665,0.6030534351145038,-0.9770992366412213,-0.76123046875,0.6025390625,-0.15380859375,-37.80624970389245,50.75410502855418,0,0,0,0,-2,0,-1,0,0,0,-38,49
1528558123706,0,0,-3.015267175572519,0.5801526717557252,-1.183206106870229,-0.744384765625,0.594482421875,-0.147216796875,-38.07685329374833,50.55430133096526,0,0,0,0,-2,0,-1,0,0,0,-38,49
1528558123806,0,0,-2.9770992366412212,0.6564885496183206,-1.1908396946564885,-0.73583984375,0.607666015625,-0.14697265625,-39.001156515904334,49.64797544398955,0,0,0,0,-2,0,-1,0,0,0,-38,49
1528558123906,0,0,-2.877862595419847,0.5419847328244275,-1.4809160305343512,-0.734619140625,0.606201171875,-0.14306640625,-39.00657337738799,49.70670276705037,0,0,0,0,-2,0,-1,0,0,0,-38,49
1528558124006,0,0,-3.0076335877862594,0.5801526717557252,-1.4580152671755726,-0.7421875,0.599365234375,-0.14111328125,-38.42683957596019,50.31933761380159,0,0,0,0,-2,0,-1,0,0,0,-38,49
1528558124107,0,0,-3,0.7633587786259542,-1.1145038167938932,-0.7314453125,0.602783203125,-0.147216796875,-38.93466476631532,49.69137303871091,0,0,0,0,-2,0,-1,0,0,0,-38,49
1528558124207,0,0,-3.1297709923664123,0.5954198473282443,-1.251908396946565,-0.736083984375,0.6201171875,-0.155029296875,-39.50111459133876,49.02953555495466,0,0,0,0,-2,0,-1,0,0,0,-38,49
1528558124307,0,0,-2.8473282442748094,0.5190839694656488,-1.213740458015267,-0.7373046875,0.60009765625,-0.14599609375,-38.60405325127174,50.0488395887826,0,0,0,0,-2,0,-1,0,0,0,-38,49
1528558124408,0,0,-2.877862595419847,0.5343511450381679,-1.2290076335877862,-0.73193359375,0.59423828125,-0.1455078125,-38.53002511659364,50.1091082139809,0,0,0,0,-2,0,-1,0,0,0,-38,49
1528558124508,0,0,-2.885496183206107,0.6183206106870229,-1.251908396946565,-0.73974609375,0.60595703125,-0.14892578125,-38.7655169565491,49.851753040370944,0,0,0,0,-2,0,-1,0,0,0,-38,49
1528558124607,0,0,-3.1603053435114505,0.5954198473282443,-1.2900763358778626,-0.736572265625,0.59716796875,-0.149169921875,-38.47093035968325,50.116162225168296,0,0,0,0,-2,0,-1,0,0,0,-38,49
1528558124708,0,0,-2.854961832061069,0.6793893129770993,-1.2900763358778626,-0.740966796875,0.606201171875,-0.14404296875,-38.767527652619705,49.93949074579685,0,0,0,0,-2,0,-1,0,0,0,-38,49
1528558124808,0,0,-3.068702290076336,0.5801526717557252,-1.1526717557251909,-0.7275390625,0.603271484375,-0.152587890625,-39.060643015903715,49.45937833357651,0,0,0,0,-2,0,-1,0,0,0,-38,49
1528558124908,0,0,-2.7099236641221376,0.549618320610687,-1.3435114503816794,-0.738525390625,0.60302734375,-0.154541015625,-38.63248623556249,49.871919701350826,0,0,0,0,-2,0,-1,0,0,0,-38,49
1528558125009,0,0,-3.068702290076336,0.6564885496183206,-1.1374045801526718,-0.7412109375,0.606689453125,-0.1474609375,-38.75675021213127,49.891156393621856,0,0,0,0,-2,0,-1,0,0,0,-38,49
1528558125109,0,0,-2.8702290076335877,0.5648854961832062,-1.2748091603053435,-0.740966796875,0.6103515625,-0.14794921875,-38.930522594165815,49.71612697155975,0,0,0,0,-2,0,-1,0,0,0,-38,49
1528558125209,0,0,-2.969465648854962,0.5114503816793893,-1.3053435114503817,-0.73388671875,0.60595703125,-0.145263671875,-39.006346670131265,49.66621459190426,0,0,0,0,-2,0,-1,0,0,0,-38,49
1528558125309,0,0,-2.6412213740458017,0.42748091603053434,-1.4961832061068703,-0.739501953125,0.60595703125,-0.158203125,-38.7045476560995,49.739448559059,0,0,0,0,-2,0,-1,0,0,0,-38,49
1528558125409,0,0,-3.1603053435114505,0.8473282442748091,-1.0610687022900764,-0.737060546875,0.599609375,-0.1533203125,-38.53609901640584,49.980215865486606,0,0,0,0,-2,0,-1,0,0,0,-38,49
1528558125509,0,0,-2.877862595419847,0.5419847328244275,-1.16793893129771,-0.734375,0.60595703125,-0.1357421875,-39.05547587196283,49.78271122721137,0,0,0,0,-2,0,-1,0,0,0,-38,49
1528558125609,0,0,-2.877862595419847,0.6183206106870229,-1.2061068702290076,-0.73974609375,0.607177734375,-0.1396484375,-38.887782062060246,49.89519511862795,0,0,0,0,-2,0,-1,0,0,0,-38,49
1528558125710,0,0,-2.8244274809160306,0.46564885496183206,-1.282442748091603,-0.74169921875,0.606201171875,-0.15185546875,-38.68440069778505,49.88358701926893,0,0,0,0,-2,0,-1,0,0,0,-38,49
1528558125810,0,0,-3.0381679389312977,0.6793893129770993,-1.4274809160305344,-0.73876953125,0.60498046875,-0.16650390625,-38.620117027411176,49.65704037987561,0,0,0,0,-2,0,-1,0,0,0,-38,49
1528558125910,0,0,-2.7557251908396947,0.3511450381679389,-1.3969465648854962,-0.74169921875,0.607177734375,-0.12646484375,-38.90297986873721,50.09766546046691,0,0,0,0,-2,0,-1,0,0,0,-38,49
1528558126010,0,0,-3.0839694656488548,0.7480916030534351,-1.16793893129771,-0.73974609375,0.604736328125,-0.1435546875,-38.74775114831203,49.962707590086346,0,0,0,0,-2,0,-1,0,0,0,-38,49
1528558126111,0,0,-2.984732824427481,0.45038167938931295,-1.1984732824427482,-0.735595703125,0.607421875,-0.146484375,-39.00240619422556,49.654513580600586,0,0,0,0,-2,0,-1,0,0,0,-38,49
1528558126211,0,0,-2.984732824427481,0.44274809160305345,-1.381679389312977,-0.7490234375,0.596435546875,-0.1552734375,-37.943790871353904,50.551569657800194,0,0,0,0,-2,0,-1,0,0,0,-38,49
1528558126311,0,0,-3.0839694656488548,0.816793893129771,-1.282442748091603,-0.739013671875,0.599365234375,-0.12548828125,-38.6454245929801,50.3541984269849,0,0,0,0,-2,0,-1,0,0,0,-38,49
1528558126411,0,0,-2.6259541984732824,0.4351145038167939,-1.381679389312977,-0.73779296875,0.6083984375,-0.153564453125,-38.914541430272386,49.61943433437073,0,0,0,0,-2,0,-1,0,0,0,-38,49
1528558126511,0,0,-2.854961832061069,0.44274809160305345,-1.465648854961832,-0.740966796875,0.6005859375,-0.14990234375,-38.465354484527744,50.124299731097885,0,0,0,0,-2,0,-1,0,0,0,-38,49
1528558126611,0,0,-3.1374045801526718,0.5648854961832062,-1.1984732824427482,-0.74267578125,0.593994140625,-0.141357421875,-38.15662969985991,50.575054302044386,0,0,0,0,-2,0,-1,0,0,0,-38,49
1528558126711,0,0,-3.068702290076336,0.5038167938931297,-1.1603053435114503,-0.745361328125,0.603759765625,-0.1484375,-38.464425296661446,50.1670076099471,0,0,0,0,-2,0,-1,0,0,0,-38,49
1528558126810,0,0,-3.0076335877862594,0.366412213740458,-1.2213740458015268,-0.721923828125,0.607666015625,-0.148193359375,-39.50689431823573,49.09432407822799,0,0,0,0,-2,0,-1,0,0,0,-38,49
1528558126911,0,0,-2.9389312977099236,0.3969465648854962,-1.4427480916030535,-0.7412109375,0.6025390625,-0.15283203125,-38.5255175986374,50.01498190673294,0,0,0,0,-2,0,-1,0,0,0,-38,49
1528558127011,0,0,-2.9160305343511452,0.5801526717557252,-1.251908396946565,-0.720458984375,0.599853515625,-0.140380859375,-39.25672695664419,49.46641229843101,0,0,0,0,-2,0,-1,0,0,0,-38,49
1528558127111,0,0,-2.854961832061069,0.31297709923664124,-1.1984732824427482,-0.736328125,0.6083984375,-0.14599609375,-39.024149487229245,49.64488139862862,0,0,0,0,-2,0,-1,0,0,0,-38,49
1528558127211,0,0,-2.900763358778626,0.44274809160305345,-1.3969465648854962,-0.740478515625,0.605224609375,-0.141357421875,-38.75904721960547,49.9919175249584,0,0,0,0,-2,0,-1,0,0,0,-38,49
1528558127310,0,0,-3.099236641221374,0.7557251908396947,-1.2213740458015268,-0.7412109375,0.603271484375,-0.1533203125,-38.55579530179525,49.977333327460514,0,0,0,0,-2,0,-1,0,0,0,-38,49
1528558127411,0,0,-3.0076335877862594,0.648854961832061,-1.183206106870229,-0.743408203125,0.602294921875,-0.146728515625,-38.479310653812384,50.17609508034637,0,0,0,0,-2,0,-1,0,0,0,-38,49
1528558127511,0,0,-3.015267175572519,0.5114503816793893,-1.1755725190839694,-0.73974609375,0.596923828125,-0.148681640625,-38.34786140699669,50.253586511835614,0,0,0,0,-2,0,-1,0,0,0,-38,49
1528558127612,0,0,-2.900763358778626,0.3511450381679389,-1.3893129770992367,-0.740234375,0.6220703125,-0.148681640625,-39.48558213165818,49.171684812706864,0,0,0,0,-2,0,-1,0,0,0,-38,49
1528558127712,0,0,-2.877862595419847,0.5267175572519084,-1.2290076335877862,-0.7421875,0.6015625,-0.154296875,-38.43406807122891,50.078637579028964,0,0,0,0,-2,0,-1,0,0,0,-38,49
1528558127812,0,0,-3.0229007633587788,0.5267175572519084,-1.2213740458015268,-0.739990234375,0.600830078125,-0.146728515625,-38.535132208931564,50.11098301524294,0,0,0,0,-2,0,-1,0,0,0,-38,49
1528558127912,0,0,-2.984732824427481,0.5419847328244275,-1.1297709923664123,-0.721923828125,0.624267578125,-0.146240234375,-40.28173797828101,48.39050889944854,0,0,0,0,-2,0,-1,0,0,0,-38,49
1528558128013,0,0,-2.9618320610687023,0.7786259541984732,-1.083969465648855,-0.73779296875,0.60400390625,-0.127197265625,-38.89525008379088,50.08349574751149,0,0,0,0,-2,0,-1,0,0,0,-38,49
1528558128113,0,0,-2.8625954198473282,0.5648854961832062,-1.251908396946565,-0.735595703125,0.599365234375,-0.15478515625,-38.56681533483858,49.91823068400968,0,0,0,0,-2,0,-1,0,0,0,-38,49
1528558128213,0,0,-2.8625954198473282,0.7251908396946565,-1.1374045801526718,-0.737060546875,0.621337890625,-0.1494140625,-39.56316425328493,49.07387572401259,0,0,0,0,-2,0,-1,0,0,0,-38,49
1528558128312,0,0,-3,0.6946564885496184,-1.1297709923664123,-0.7333984375,0.6015625,-0.141845703125,-38.84504096748675,49.87803172875793,0,0,0,0,-2,0,-1,0,0,0,-38,49
1528558128413,0,0,-2.8473282442748094,0.4732824427480916,-1.282442748091603,-0.738525390625,0.609375,-0.15380859375,-38.930976461698485,49.602164998354574,0,0,0,0,-2,0,-1,0,0,0,-38,49
1528558128514,0,0,-2.9618320610687023,0.549618320610687,-1.3435114503816794,-0.7392578125,0.607666015625,-0.1484375,-38.865655619372255,49.763313167959936,0,0,0,0,-2,0,-1,0,0,0,-38,49
1528558128614,0,0,-2.8396946564885495,0.5725190839694656,-1.2366412213740459,-0.737548828125,0.6005859375,-0.144287109375,-38.63014164063083,50.05484329782245,0,0,0,0,-2,0,-1,0,0,0,-38,49
1528558128714,0,0,-2.801526717557252,0.5725190839694656,-1.3129770992366412,-0.739990234375,0.6015625,-0.1484375,-38.556781540809524,50.0600245609909,0,0,0,0,-2,0,-1,0,0,0,-38,49
1528558128813,0,0,-2.8396946564885495,0.5801526717557252,-1.1526717557251909,-0.7392578125,0.607666015625,-0.152099609375,-38.8385888745414,49.72363052508062,0,0,0,0,-2,0,-1,0,0,0,-38,49
1528558128914,0,0,-2.9389312977099236,0.6259541984732825,-1.0687022900763359,-0.736083984375,0.608154296875,-0.147705078125,-39.0093590546354,49.628107056482214,0,0,0,0,-2,0,-1,0,0,0,-38,49
1528558129014,0,0,-2.854961832061069,0.6412213740458015,-1.2061068702290076,-0.74951171875,0.62451171875,-0.144775390625,-39.28668641780579,49.458932049807245,0,0,0,0,-2,0,-1,0,0,0,-38,49
1528558129114,0,0,-2.8702290076335877,0.4580152671755725,-1.2061068702290076,-0.739990234375,0.608642578125,-0.14697265625,-38.894599876267584,49.76405754931996,0,0,0,0,-2,0,-1,0,0,0,-38,49
1528558129215,0,0,-2.8396946564885495,0.45038167938931295,-1.3969465648854962,-0.73828125,0.60546875,-0.14111328125,-38.85226004005271,49.89977218043601,0,0,0,0,-2,0,-1,0,0,0,-38,49
1528558129315,0,0,-2.9770992366412212,0.5267175572519084,-1.251908396946565,-0.731689453125,0.59375,-0.1513671875,-38.47248206133357,50.05609421614815,0,0,0,0,-2,0,-1,0,0,0,-38,49
1528558129415,0,0,-2.7480916030534353,0.3511450381679389,-1.3129770992366412,-0.73779296875,0.605224609375,-0.142333984375,-38.85025710860611,49.879252779831646,0,0,0,0,-2,0,-1,0,0,0,-38,49
1528558129515,0,0,-2.954198473282443,0.6030534351145038,-1.0687022900763359,-0.744384765625,0.59375,-0.14501953125,-38.058082932424114,50.6110797519901,0,0,0,0,-2,0,-1,0,0,0,-38,49
1528558129615,0,0,-2.8091603053435112,0.4580152671755725,-1.2671755725190839,-0.7392578125,0.60302734375,-0.15478515625,-38.60410210054531,49.89715434324168,0,0,0,0,-2,0,-1,0,0,0,-38,49
1528558129715,0,0,-3.0916030534351147,0.732824427480916,-1.2290076335877862,-0.74365234375,0.60400390625,-0.144287109375,-38.566866153057184,50.13589081163528,0,0,0,0,-2,0,-1,0,0,0,-38,49
1528558129815,0,0,-3.0610687022900764,0.45038167938931295,-1.4198473282442747,-0.73974609375,0.6083984375,-0.144775390625,-38.908041841496235,49.78857818096992,0,0,0,0,-2,0,-1,0,0,0,-38,49
1528558129915,0,0,-3.053435114503817,0.4732824427480916,-1.1297709923664123,-0.739013671875,0.605224609375,-0.150146484375,-38.74933457369307,49.8427225209214,0,0,0,0,-2,0,-1,0,0,0,-38,49
1528558130016,0,0,-2.8625954198473282,0.6564885496183206,-1.366412213740458,-0.739990234375,0.601806640625,-0.1494140625,-38.560984717057046,50.03856477905651,0,0,0,0,-2,0,-1,0,0,0,-38,49
1528558130116,0,0,-2.969465648854962,0.6106870229007634,-1.1908396946564885,-0.736572265625,0.60595703125,-0.140869140625,-38.93914293899364,49.815253225666936,0,0,0,0,-2,0,-1,0,0,0,-38,49
1528558130216,0,0,-2.946564885496183,0.6030534351145038,-1.1603053435114503,-0.74609375,0.597412109375,-0.150390625,-38.129519600872875,50.45345892625355,0,0,0,0,-2,0,-1,0,0,0,-38,49
1528558130317,0,0,-2.969465648854962,0.5572519083969466,-1.2290076335877862,-0.746826171875,0.5947265625,-0.142822265625,-38.03124907028827,50.68322256217109,0,0,0,0,-2,0,-1,0,0,0,-38,49
1528558130417,0,0,-2.8702290076335877,0.5419847328244275,-1.3893129770992367,-0.740478515625,0.604248046875,-0.15625,-38.60532050261931,49.87364350843225,0,0,0,0,-2,0,-1,0,0,0,-38,49.2
1528558130517,0,0,-3,0.5114503816793893,-1.1755725190839694,-0.734130859375,0.601806640625,-0.168701171875,-38.62243509915628,49.59046376182929,0,0,0,0,-2,0,-1,0,0,0,-38,49.2
1528558130617,0,0,-2.900763358778626,0.5038167938931297,-1.1068702290076335,-0.736328125,0.603515625,-0.140869140625,-38.835064309518394,49.914017830831874,0,0,0,0,-2,0,-1,0,0,0,-38,49.2
1528558130718,0,0,-2.717557251908397,0.48091603053435117,-1.3282442748091603,-0.7431640625,0.608642578125,-0.146728515625,-38.7810927332153,49.887513399115164,0,0,0,0,-2,0,-1,0,0,0,-38,49.2
1528558130818,0,0,-3.0839694656488548,0.7480916030534351,-1.1984732824427482,-0.7412109375,0.6044921875,-0.14404296875,-38.67970694470201,50.02417491750262,0,0,0,0,-2,0,-1,0,0,0,-38,49.2
1528558130918,0,0,-3.053435114503817,0.648854961832061,-1.3053435114503817,-0.737060546875,0.607666015625,-0.144287109375,-38.975905223328944,49.7231380620943,0,0,0,0,-2,0,-1,0,0,0,-38,49.2
1528558131018,0,0,-3.2290076335877864,0.9083969465648855,-1.0534351145038168,-0.73779296875,0.604736328125,-0.1435546875,-38.8190218149364,49.88808622608683,0,0,0,0,-2,0,-1,0,0,0,-38,49.2
1528558131118,0,0,-2.7938931297709924,0.48854961832061067,-1.381679389312977,-0.738525390625,0.60888671875,-0.1455078125,-38.96980461518795,49.712794872674415,0,0,0,0,-2,0,-1,0,0,0,-38,49.2
1528558131219,0,0,-3.1297709923664123,0.6106870229007634,-1.1374045801526718,-0.73486328125,0.60400390625,-0.146728515625,-38.86940822524564,49.77440365974044,0,0,0,0,-2,0,-1,0,0,0,-38,49.2
1528558131319,0,0,-2.9770992366412212,0.3893129770992366,-1.297709923664122,-0.73681640625,0.602783203125,-0.14501953125,-38.75373129600946,49.921598783910234,0,0,0,0,-2,0,-1,0,0,0,-38,49.2
1528558131419,0,0,-3.0610687022900764,0.5343511450381679,-1.1297709923664123,-0.7431640625,0.622314453125,-0.14794921875,-39.395184734160615,49.280616857969896,0,0,0,0,-2,0,-1,0,0,0,-38,49.2
1528558131518,0,0,-2.9236641221374047,0.5419847328244275,-1.4045801526717556,-0.73828125,0.6025390625,-0.15185546875,-38.6389236779934,49.914092977662946,0,0,0,0,-2,0,-1,0,0,0,-38,49.2
1528558131619,0,0,-2.8091603053435112,0.4580152671755725,-1.2442748091603053,-0.74560546875,0.60791015625,-0.153076171875,-38.613173517786926,49.94369954360906,0,0,0,0,-2,0,-1,0,0,0,-38,49.2
1528558131719,0,0,-2.9160305343511452,0.48091603053435117,-1.2061068702290076,-0.7353515625,0.605224609375,-0.1484375,-38.89549685047905,49.720934082319246,0,0,0,0,-2,0,-1,0,0,0,-38,49.2
1528558131819,0,0,-2.9389312977099236,0.3053435114503817,-1.2671755725190839,-0.745361328125,0.602294921875,-0.14794921875,-38.40015151681066,50.23684284580297,0,0,0,0,-2,0,-1,0,0,0,-38,49.2
1528558131920,0,0,-3,0.6717557251908397,-1.1068702290076335,-0.738037109375,0.609130859375,-0.1474609375,-38.984714962999384,49.662778644975866,0,0,0,0,-2,0,-1,0,0,0,-38,49.2
1528558132020,0,0,-3.015267175572519,0.6335877862595419,-1.3206106870229009,-0.736572265625,0.60400390625,-0.14208984375,-38.8401559860114,49.88905599005538,0,0,0,0,-2,0,-1,0,0,0,-38,49.2
1528558132120,0,0,-3.053435114503817,0.5267175572519084,-1.2366412213740459,-0.744873046875,0.60498046875,-0.151611328125,-38.515373679062584,50.060276413401034,0,0,0,0,-2,0,-1,0,0,0,-38,49.2
1528558132220,0,0,-2.9770992366412212,0.6030534351145038,-1.3358778625954197,-0.731689453125,0.605224609375,-0.147705078125,-39.03530988683462,49.587689906832686,0,0,0,0,-2,0,-1,0,0,0,-38,49.2
1528558132321,0,0,-3.030534351145038,0.7862595419847328,-1.1755725190839694,-0.7431640625,0.59521484375,-0.149169921875,-38.141030014425205,50.45388969822256,0,0,0,0,-2,0,-1,0,0,0,-38,49.2
1528558132421,0,0,-2.9236641221374047,0.5954198473282443,-1.2061068702290076,-0.7392578125,0.6025390625,-0.15087890625,-38.61073938463466,49.96220991183541,0,0,0,0,-2,0,-1,0,0,0,-38,49.2
1528558132522,0,0,-2.9618320610687023,0.5343511450381679,-1.2213740458015268,-0.7451171875,0.6015625,-0.15234375,-38.34316470563595,50.2115853659152,0,0,0,0,-2,0,-1,0,0,0,-38,49.2
1528558132622,0,0,-2.946564885496183,0.6183206106870229,-1.2900763358778626,-0.72412109375,0.6103515625,-0.153076171875,-39.511076230993424,49.00965816464338,0,0,0,0,-2,0,-1,0,0,0,-38,49.2
1528558132722,0,0,-3.0839694656488548,0.7480916030534351,-1.3129770992366412,-0.736328125,0.599365234375,-0.151123046875,-38.567858267802464,49.987627617635155,0,0,0,0,-2,0,-1,0,0,0,-38,49.2
1528558132821,0,0,-2.8091603053435112,0.5725190839694656,-1.3358778625954197,-0.735595703125,0.604248046875,-0.15283203125,-38.80850332705656,49.7251194080855,0,0,0,0,-2,0,-1,0,0,0,-38,49.2
1528558132922,0,0,-2.8625954198473282,0.44274809160305345,-1.3435114503816794,-0.737060546875,0.607421875,-0.1552734375,-38.883185177424494,49.61505210294254,0,0,0,0,-2,0,-1,0,0,0,-38,49.2
1528558133022,0,0,-2.885496183206107,0.5572519083969466,-1.2442748091603053,-0.73779296875,0.6044921875,-0.150146484375,-38.75986880513752,49.828247637446815,0,0,0,0,-2,0,-1,0,0,0,-38,49.2
1528558133122,0,0,-2.7786259541984735,0.3511450381679389,-1.3053435114503817,-0.74267578125,0.603515625,-0.14892578125,-38.54650473571693,50.07070318290031,0,0,0,0,-2,0,-1,0,0,0,-38,49.2
1528558133221,0,0,-2.786259541984733,0.5190839694656488,-1.2748091603053435,-0.73681640625,0.6103515625,-0.147216796875,-39.08722994137427,49.56506723112508,0,0,0,0,-2,0,-1,0,0,0,-38,49.2
1528558133322,0,0,-3.0076335877862594,0.6564885496183206,-1.1374045801526718,-0.740478515625,0.602783203125,-0.150634765625,-38.57960702916628,50.00069680519872,0,0,0,0,-2,0,-1,0,0,0,-38,49.2
1528558133422,0,0,-3.1297709923664123,0.6412213740458015,-1.3053435114503817,-0.733642578125,0.60791015625,-0.139892578125,-39.14398794389576,49.62628759458,0,0,0,0,-2,0,-1,0,0,0,-38,49.2
1528558133522,0,0,-3.045801526717557,0.5343511450381679,-1.3129770992366412,-0.739990234375,0.60546875,-0.143310546875,-38.77443671797152,49.942233647806454,0,0,0,0,-2,0,-1,0,0,0,-38,49.2
1528558133623,0,0,-3.114503816793893,0.7251908396946565,-1.3511450381679388,-0.73291015625,0.607177734375,-0.145751953125,-39.095111600534494,49.56959022828602,0,0,0,0,-2,0,-1,0,0,0,-38,49.2
1528558133723,0,0,-2.8473282442748094,0.46564885496183206,-1.366412213740458,-0.74169921875,0.616455078125,-0.14404296875,-39.21083568208921,49.518352337698474,0,0,0,0,-2,0,-1,0,0,0,-38,49.2
1528558133823,0,0,-3.1068702290076335,0.6106870229007634,-1.2213740458015268,-0.731201171875,0.60302734375,-0.16796875,-38.791384942562146,49.433064642966905,0,0,0,0,-2,0,-1,0,0,0,-38,49.2
1528558133923,0,0,-2.900763358778626,0.6030534351145038,-1.3587786259541985,-0.7392578125,0.604736328125,-0.150634765625,-38.714284875625786,49.868177872515936,0,0,0,0,-2,0,-1,0,0,0,-38,49.2
1528558134024,0,0,-2.9083969465648853,0.5419847328244275,-1.1450381679389312,-0.739013671875,0.59423828125,-0.15673828125,-38.18856886943447,50.253186726582314,0,0,0,0,-2,0,-1,0,0,0,-38,49.2
1528558134124,0,0,-2.816793893129771,0.48091603053435117,-1.2671755725190839,-0.737060546875,0.608642578125,-0.151611328125,-38.96717618096712,49.602086765382346,0,0,0,0,-2,0,-1,0,0,0,-38,49.2
1528558134224,0,0,-2.969465648854962,0.3969465648854962,-1.1374045801526718,-0.742919921875,0.6064453125,-0.141845703125,-38.72318695977672,50.025840922040075,0,0,0,0,-2,0,-1,0,0,0,-38,49.2
1528558134324,0,0,-2.7480916030534353,0.48091603053435117,-1.297709923664122,-0.7373046875,0.6103515625,-0.153564453125,-39.02211033225947,49.51546677966792,0,0,0,0,-2,0,-1,0,0,0,-38,49.2
1528558134425,0,0,-3.015267175572519,0.4198473282442748,-1.1526717557251909,-0.738037109375,0.6044921875,-0.14892578125,-38.75998644551564,49.850884609631024,0,0,0,0,-2,0,-1,0,0,0,-38,49.2
1528558134525,0,0,-2.8244274809160306,0.6793893129770993,-1.1221374045801527,-0.739013671875,0.6044921875,-0.1552734375,-38.67703473073589,49.81805520532484,0,0,0,0,-2,0,-1,0,0,0,-38,49.2
1528558134626,0,0,-3.0229007633587788,0.6946564885496184,-1.2061068702290076,-0.734619140625,0.6015625,-0.14501953125,-38.777443292619104,49.89137922943405,0,0,0,0,-2,0,-1,0,0,0,-38,49.2
1528558134726,0,0,-3.0763358778625953,0.7480916030534351,-1.1908396946564885,-0.744873046875,0.6044921875,-0.149169921875,-38.510583321658686,50.108379433794255,0,0,0,0,-2,0,-1,0,0,0,-38,49.2
1528558134826,0,0,-2.816793893129771,0.3893129770992366,-1.2213740458015268,-0.736328125,0.605224609375,-0.14453125,-38.88821560663813,49.800122709038426,0,0,0,0,-2,0,-1,0,0,0,-38,49.2
1528558134926,0,0,-2.854961832061069,0.549618320610687,-1.465648854961832,-0.742919921875,0.611572265625,-0.152587890625,-38.881601441166474,49.687513311977774,0,0,0,0,-2,0,-1,0,0,0,-38,49.2
1528558135027,0,0,-3.030534351145038,0.5648854961832062,-1.3053435114503817,-0.743896484375,0.597900390625,-0.15234375,-38.21687291655725,50.326962328259754,0,0,0,0,-2,0,-1,0,0,0,-38,49.2
1528558135127,0,0,-2.8244274809160306,0.4580152671755725,-1.0687022900763359,-0.7314453125,0.608642578125,-0.150390625,-39.18208979475638,49.39896079184136,0,0,0,0,-2,0,-1,0,0,0,-38,49.2
1528558135227,0,0,-2.7404580152671754,0.48854961832061067,-1.2595419847328244,-0.739501953125,0.60107421875,-0.153076171875,-38.51754464851099,50.011630718829615,0,0,0,0,-2,0,-1,0,0,0,-38,49.2
1528558135328,0,0,-3.045801526717557,0.4732824427480916,-1.3358778625954197,-0.7421875,0.60400390625,-0.152587890625,-38.559865206946284,49.99046509387963,0,0,0,0,-2,0,-1,0,0,0,-38,49.2
1528558135428,0,0,-2.83206106870229,0.5877862595419847,-1.3435114503816794,-0.741943359375,0.60107421875,-0.1455078125,-38.48437356058149,50.18761217470968,0,0,0,0,-2,0,-1,0,0,0,-38,49
1528558135528,0,0,-3.1297709923664123,0.6870229007633588,-1.1068702290076335,-0.735595703125,0.605712890625,-0.14599609375,-38.92703254920918,49.73495632439572,0,0,0,0,-2,0,-1,0,0,0,-38,49
1528558135628,0,0,-2.7480916030534353,0.5343511450381679,-1.1984732824427482,-0.7392578125,0.606689453125,-0.1376953125,-38.89651197565789,49.91786501300242,0,0,0,0,-2,0,-1,0,0,0,-38,49
1528558135728,0,0,-2.877862595419847,0.5648854961832062,-1.2290076335877862,-0.720947265625,0.60498046875,-0.155517578125,-39.36130975111113,49.093396290144135,0,0,0,0,-2,0,-1,0,0,0,-38,49
1528558135829,0,0,-2.816793893129771,0.9236641221374046,-1.1221374045801527,-0.738525390625,0.604248046875,-0.149169921875,-38.72912190300149,49.87765968242375,0,0,0,0,-2,0,-1,0,0,0,-38,49
1528558135929,0,0,-2.8702290076335877,0.5648854961832062,-1.251908396946565,-0.735107421875,0.598388671875,-0.160888671875,-38.49145982212849,49.87162660395222,0,0,0,0,-2,0,-1,0,0,0,-38,49
1528558136029,0,0,-2.8931297709923665,0.7022900763358778,-1.1450381679389312,-0.73974609375,0.5947265625,-0.1435546875,-38.28180030978364,50.40755734007389,0,0,0,0,-2,0,-1,0,0,0,-38,49
1528558136129,0,0,-2.9236641221374047,0.4351145038167939,-1.3129770992366412,-0.738037109375,0.616943359375,-0.150390625,-39.32063425586709,49.29121296932285,0,0,0,0,-2,0,-1,0,0,0,-38,49
1528558136230,0,0,-3.0381679389312977,0.6335877862595419,-1.1526717557251909,-0.733642578125,0.614990234375,-0.1474609375,-39.41448595096924,49.23766699776255,0,0,0,0,-2,0,-1,0,0,0,-38,49
1528558136330,0,0,-2.931297709923664,0.5267175572519084,-1.4351145038167938,-0.740478515625,0.607666015625,-0.153564453125,-38.78333540820628,49.75413884841423,0,0,0,0,-2,0,-1,0,0,0,-38,49
1528558136430,0,0,-2.877862595419847,0.5877862595419847,-1.3358778625954197,-0.7412109375,0.60595703125,-0.14208984375,-38.76109629411345,49.97988813709504,0,0,0,0,-2,0,-1,0,0,0,-38,49
1528558136530,0,0,-3.053435114503817,0.46564885496183206,-1.282442748091603,-0.732177734375,0.59375,-0.150390625,-38.46198661225692,50.08597821616391,0,0,0,0,-2,0,-1,0,0,0,-38,49
1528558136629,0,0,-2.8931297709923665,0.7404580152671756,-1.1526717557251909,-0.744384765625,0.6064453125,-0.144287109375,-38.65305978254032,50.05602510439842,0,0,0,0,-2,0,-1,0,0,0,-38,49
1528558136730,0,0,-2.885496183206107,0.3969465648854962,-1.1450381679389312,-0.739990234375,0.605712890625,-0.1484375,-38.74893955190333,49.877070141206715,0,0,0,0,-2,0,-1,0,0,0,-38,49
1528558136830,0,0,-2.9236641221374047,0.42748091603053434,-1.2213740458015268,-0.73974609375,0.60400390625,-0.14794921875,-38.682361006504756,49.94826142529628,0,0,0,0,-2,0,-1,0,0,0,-38,49
1528558136930,0,0,-3.045801526717557,0.5801526717557252,-1.3358778625954197,-0.73974609375,0.609130859375,-0.14892578125,-38.911726591320054,49.71254069672058,0,0,0,0,-2,0,-1,0,0,0,-38,49
1528558137030,0,0,-3,0.48091603053435117,-1.213740458015267,-0.741943359375,0.606201171875,-0.150390625,-38.68636452111997,49.908889057351004,0,0,0,0,-2,0,-1,0,0,0,-38,49
1528558137131,0,0,-2.83206106870229,0.5114503816793893,-1.1526717557251909,-0.72216796875,0.600341796875,-0.1357421875,-39.24874100599751,49.559368391874024,0,0,0,0,-2,0,-1,0,0,0,-38,49
1528558137231,0,0,-2.946564885496183,0.6564885496183206,-1.083969465648855,-0.74365234375,0.60009765625,-0.143310546875,-38.392616525530265,50.31914014646872,0,0,0,0,-2,0,-1,0,0,0,-38,49
1528558137331,0,0,-2.7786259541984735,0.45038167938931295,-1.1145038167938932,-0.721435546875,0.608642578125,-0.155029296875,-39.51668048906583,48.957416407254115,0,0,0,0,-2,0,-1,0,0,0,-38,49
1528558137431,0,0,-3.213740458015267,0.5954198473282443,-1.2671755725190839,-0.746826171875,0.6220703125,-0.14599609375,-39.26524604352363,49.450217534096076,0,0,0,0,-2,0,-1,0,0,0,-38,49
1528558137531,0,0,-2.9083969465648853,0.4580152671755725,-1.4122137404580153,-0.74267578125,0.599365234375,-0.15234375,-38.328962631726604,50.2159824502695,0,0,0,0,-2,0,-1,0,0,0,-38,49
1528558137630,0,0,-2.8702290076335877,0.5267175572519084,-1.3969465648854962,-0.744384765625,0.60693359375,-0.1533203125,-38.6103709899372,49.93742612460918,0,0,0,0,-2,0,-1,0,0,0,-38,49
1528558137731,0,0,-2.854961832061069,0.3816793893129771,-1.3435114503816794,-0.738037109375,0.605224609375,-0.14453125,-38.82572531962662,49.86559331527735,0,0,0,0,-2,0,-1,0,0,0,-38,49
1528558137831,0,0,-3.1603053435114505,0.7709923664122137,-1.251908396946565,-0.74072265625,0.600341796875,-0.148193359375,-38.47529438373282,50.144564991280696,0,0,0,0,-2,0,-1,0,0,0,-38,49
1528558137931,0,0,-2.8396946564885495,0.5648854961832062,-1.2748091603053435,-0.74072265625,0.606689453125,-0.153564453125,-38.72950878842733,49.80615616209189,0,0,0,0,-2,0,-1,0,0,0,-38,49
1528558138032,0,0,-2.8702290076335877,0.6641221374045801,-1.1755725190839694,-0.72705078125,0.60400390625,-0.128662109375,-39.28483014923165,49.65549798584664,0,0,0,0,-2,0,-1,0,0,0,-38,49
1528558138132,0,0,-2.801526717557252,0.5267175572519084,-1.4732824427480915,-0.72216796875,0.60595703125,-0.156005859375,-39.357289212914445,49.09295361376094,0,0,0,0,-2,0,-1,0,0,0,-38,49
1528558138232,0,0,-2.8473282442748094,0.5877862595419847,-1.2442748091603053,-0.73779296875,0.60009765625,-0.1533203125,-38.53224428289916,49.986680874937946,0,0,0,0,-2,0,-1,0,0,0,-38,49
1528558138331,0,0,-2.9618320610687023,0.5801526717557252,-1.1526717557251909,-0.73583984375,0.608154296875,-0.156494140625,-38.951956748567966,49.52251825354647,0,0,0,0,-2,0,-1,0,0,0,-38,49
1528558138432,0,0,-3.0381679389312977,0.6106870229007634,-1.213740458015267,-0.73779296875,0.605712890625,-0.1474609375,-38.83605014729381,49.80358688901449,0,0,0,0,-2,0,-1,0,0,0,-38,49
1528558138532,0,0,-2.885496183206107,0.5343511450381679,-1.0687022900763359,-0.7333984375,0.6005859375,-0.14404296875,-38.783835405799955,49.89821505824895,0,0,0,0,-2,0,-1,0,0,0,-38,49
1528558138632,0,0,-2.969465648854962,0.6183206106870229,-1.1297709923664123,-0.741455078125,0.609130859375,-0.1455078125,-38.87428245770815,49.81393589567878,0,0,0,0,-2,0,-1,0,0,0,-38,49
1528558138733,0,0,-2.946564885496183,0.5801526717557252,-1.2213740458015268,-0.730712890625,0.607421875,-0.12939453125,-39.30164500316173,49.637967653003464,0,0,0,0,-2,0,-1,0,0,0,-38,49
1528558138834,0,0,-2.877862595419847,0.6106870229007634,-1.4045801526717556,-0.73828125,0.6015625,-0.143798828125,-38.65230201275876,50.044695445524994,0,0,0,0,-2,0,-1,0,0,0,-38,49
1528558138934,0,0,-3.2290076335877864,0.5572519083969466,-1.1374045801526718,-0.7421875,0.62255859375,-0.142822265625,-39.47839201987638,49.284512423533236,0,0,0,0,-2,0,-1,0,0,0,-38,49
1528558139034,0,0,-2.9923664122137406,0.7022900763358778,-1.16793893129771,-0.7265625,0.601806640625,-0.142822265625,-39.10212001203544,49.592280256500004,0,0,0,0,-2,0,-1,0,0,0,-38,49
1528558139134,0,0,-2.786259541984733,0.6412213740458015,-1.2366412213740459,-0.744140625,0.607177734375,-0.140869140625,-38.71936996842854,50.049886421248715,0,0,0,0,-2,0,-1,0,0,0,-38,49
1528558139235,0,0,-2.885496183206107,0.5114503816793893,-1.3358778625954197,-0.738525390625,0.607666015625,-0.14892578125,-38.88874876230396,49.730063593464685,0,0,0,0,-2,0,-1,0,0,0,-38,49
1528558139336,0,0,-2.8931297709923665,0.6259541984732825,-1.251908396946565,-0.7421875,0.60302734375,-0.144775390625,-38.57129318904377,50.118282262334574,0,0,0,0,-2,0,-1,0,0,0,-38,49
1528558139437,0,0,-2.8625954198473282,0.48854961832061067,-1.3587786259541985,-0.736328125,0.62255859375,-0.14697265625,-39.66332371996782,49.018103707073855,0,0,0,0,-2,0,-1,0,0,0,-38,49
1528558139537,0,0,-2.946564885496183,0.5801526717557252,-1.1603053435114503,-0.73828125,0.60498046875,-0.152587890625,-38.746484900566436,49.79861481370645,0,0,0,0,-2,0,-1,0,0,0,-38,49
1528558139637,0,0,-2.885496183206107,0.6259541984732825,-1.1984732824427482,-0.73974609375,0.602294921875,-0.148681640625,-38.59784819411327,50.01570540254994,0,0,0,0,-2,0,-1,0,0,0,-38,49
1528558139738,0,0,-2.66412213740458,0.4732824427480916,-1.2213740458015268,-0.74951171875,0.607177734375,-0.144775390625,-38.49857298376695,50.212201425419316,0,0,0,0,-2,0,-1,0,0,0,-38,49
1528558139838,0,0,-2.8091603053435112,0.3969465648854962,-1.3740458015267176,-0.73681640625,0.599853515625,-0.15234375,-38.56369438592276,49.971076449744594,0,0,0,0,-2,0,-1,0,0,0,-38,49
1528558139938,0,0,-3.0381679389312977,0.5648854961832062,-1.366412213740458,-0.743896484375,0.600830078125,-0.153076171875,-38.34766712861013,50.18944156846633,0,0,0,0,-2,0,-1,0,0,0,-38,49
1528558140038,0,0,-3.0229007633587788,0.6030534351145038,-1.0916030534351144,-0.741943359375,0.603271484375,-0.148193359375,-38.56700076270553,50.06158244156392,0,0,0,0,-2,0,-1,0,0,0,-38,49
1528558140139,0,0,-2.8091603053435112,0.5419847328244275,-1.2442748091603053,-0.745849609375,0.623291015625,-0.149658203125,-39.32939357700004,49.32320725063663,0,0,0,0,-2,0,-1,0,0,0,-38,49
1528558140239,0,0,-2.786259541984733,0.6030534351145038,-1.213740458015267,-0.7431640625,0.600830078125,-0.141357421875,-38.45785521200491,50.28868181162857,0,0,0,0,-2,0,-1,0,0,0,-38,49
1528558140339,0,0,-2.9923664122137406,0.5877862595419847,-1.381679389312977,-0.73779296875,0.601318359375,-0.15087890625,-38.60727553510333,49.9600829899051,0,0,0,0,-2,0,-1,0,0,0,-38,49
1528558140439,0,0,-3.030534351145038,0.6335877862595419,-1.1984732824427482,-0.741455078125,0.599853515625,-0.15576171875,-38.37007548281261,50.10936953202691,0,0,0,0,-2,0,-1,0,0,0,-38,49
1528558140539,0,0,-2.9618320610687023,0.5725190839694656,-1.282442748091603,-0.73828125,0.60400390625,-0.14599609375,-38.74981390636341,49.91328250479321,0,0,0,0,-2,0,-1,0,0,0,-38,49
1528558140638,0,0,-2.8091603053435112,0.732824427480916,-1.2061068702290076,-0.74072265625,0.60107421875,-0.15283203125,-38.47521732393993,50.06089087273937,0,0,0,0,-2,0,-1,0,0,0,-38,49
1528558140739,0,0,-3.099236641221374,0.5572519083969466,-1.1221374045801527,-0.740966796875,0.609375,-0.13037109375,-39.00621409618691,49.93562827832473,0,0,0,0,-2,0,-1,0,0,0,-38,49
1528558140839,0,0,-3.0610687022900764,0.5419847328244275,-1.2671755725190839,-0.736328125,0.610595703125,-0.15673828125,-39.04454763461737,49.43220550331046,0,0,0,0,-2,0,-1,0,0,0,-38,49
1528558140939,0,0,-3.1068702290076335,0.5648854961832062,-1.083969465648855,-0.735595703125,0.60888671875,-0.144287109375,-39.085850231078666,49.61319354761319,0,0,0,0,-2,0,-1,0,0,0,-38,49
1528558141039,0,0,-2.8473282442748094,0.6946564885496184,-1.213740458015267,-0.739990234375,0.606689453125,-0.148681640625,-38.79222218686673,49.83152876558878,0,0,0,0,-2,0,-1,0,0,0,-38,49
1528558141140,0,0,-2.9160305343511452,0.5343511450381679,-1.1068702290076335,-0.74072265625,0.609130859375,-0.142822265625,-38.91996495412762,49.81393003375579,0,0,0,0,-2,0,-1,0,0,0,-38,49
1528558141240,0,0,-3.0763358778625953,0.42748091603053434,-1.2366412213740459,-0.7431640625,0.6044921875,-0.154541015625,-38.53265574890928,49.98437754338234,0,0,0,0,-2,0,-1,0,0,0,-38,49
1528558141340,0,0,-2.854961832061069,0.5572519083969466,-1.297709923664122,-0.73779296875,0.6064453125,-0.151123046875,-38.84286775905865,49.731755005734115,0,0,0,0,-2,0,-1,0,0,0,-38,49
1528558141441,0,0,-3.099236641221374,0.7175572519083969,-1.3358778625954197,-0.737060546875,0.609375,-0.1455078125,-39.04582417999471,49.635235488484156,0,0,0,0,-2,0,-1,0,0,0,-38,49
1528558141541,0,0,-2.9160305343511452,0.3969465648854962,-1.213740458015267,-0.741943359375,0.601806640625,-0.148681640625,-38.49558759083254,50.120902614590484,0,0,0,0,-2,0,-1,0,0,0,-38,49
1528558141642,0,0,-3.0381679389312977,0.6030534351145038,-1.3358778625954197,-0.73779296875,0.60888671875,-0.150390625,-38.96082032587627,49.63273771466143,0,0,0,0,-2,0,-1,0,0,0,-38,49
1528558141742,0,0,-2.900763358778626,0.549618320610687,-1.381679389312977,-0.724365234375,0.6044921875,-0.14501953125,-39.29262058179106,49.36408372443748,0,0,0,0,-2,0,-1,0,0,0,-38,49
1528558141842,0,0,-2.9236641221374047,0.6564885496183206,-1.297709923664122,-0.746826171875,0.6044921875,-0.15283203125,-38.41374009991661,50.14204577515656,0,0,0,0,-2,0,-1,0,0,0,-38,49
1528558141942,0,0,-2.9236641221374047,0.6717557251908397,-1.1145038167938932,-0.735595703125,0.597900390625,-0.156982421875,-38.48158458741234,49.957644422140724,0,0,0,0,-2,0,-1,0,0,0,-38,49
1528558142042,0,0,-2.8702290076335877,0.6259541984732825,-1.0916030534351144,-0.736083984375,0.600830078125,-0.13134765625,-38.783937046502096,50.120265523591314,0,0,0,0,-2,0,-1,0,0,0,-38,49
1528558142143,0,0,-3.0763358778625953,0.732824427480916,-1.1526717557251909,-0.739501953125,0.60302734375,-0.15625,-38.58412145318478,49.88989333749467,0,0,0,0,-2,0,-1,0,0,0,-38,49
1528558142243,0,0,-2.9160305343511452,0.6870229007633588,-1.4045801526717556,-0.73291015625,0.608154296875,-0.14599609375,-39.138394769664,49.52402707048779,0,0,0,0,-2,0,-1,0,0,0,-38,49
1528558142343,0,0,-2.6564885496183206,0.5267175572519084,-1.3282442748091603,-0.748291015625,0.599853515625,-0.15380859375,-38.13955211312168,50.39006770592533,0,0,0,0,-2,0,-1,0,0,0,-38,49
1528558142443,0,0,-2.9236641221374047,0.549618320610687,-1.2671755725190839,-0.744140625,0.6064453125,-0.147216796875,-38.641141057253876,50.01581192760495,0,0,0,0,-2,0,-1,0,0,0,-38,49
1528558142543,0,0,-2.7480916030534353,0.42748091603053434,-1.381679389312977,-0.744873046875,0.5966796875,-0.154296875,-38.11052023901137,50.39569348284831,0,0,0,0,-2,0,-1,0,0,0,-38,49
1528558142642,0,0,-2.877862595419847,0.6412213740458015,-1.1068702290076335,-0.736328125,0.605224609375,-0.142578125,-38.902165114158,49.820591092431115,0,0,0,0,-2,0,-1,0,0,0,-38,49
1528558142743,0,0,-2.8473282442748094,0.6259541984732825,-1.1603053435114503,-0.739501953125,0.605712890625,-0.14697265625,-38.77733038832167,49.87414971240205,0,0,0,0,-2,0,-1,0,0,0,-38,49
1528558142843,0,0,-2.946564885496183,0.5419847328244275,-1.0305343511450382,-0.74365234375,0.605224609375,-0.1259765625,-38.74432574736491,50.263329435783696,0,0,0,0,-2,0,-1,0,0,0,-38,49
1528558142943,0,0,-3.0229007633587788,0.6870229007633588,-1.0534351145038168,-0.738037109375,0.603271484375,-0.14697265625,-38.71771740003959,49.92582549895499,0,0,0,0,-2,0,-1,0,0,0,-38,49
1528558143043,0,0,-2.6793893129770994,0.26717557251908397,-1.3740458015267176,-0.737548828125,0.610107421875,-0.14404296875,-39.07215286603554,49.63707709055647,0,0,0,0,-2,0,-1,0,0,0,-38,49
1528558143144,0,0,-3.045801526717557,0.8396946564885496,-1.1526717557251909,-0.73779296875,0.604248046875,-0.150146484375,-38.74857018525244,49.83899268783063,0,0,0,0,-2,0,-1,0,0,0,-38,49
1528558143244,0,0,-2.7480916030534353,0.6259541984732825,-1.5877862595419847,-0.739990234375,0.595703125,-0.149169921875,-38.27841015991687,50.311724111742514,0,0,0,0,-2,0,-1,0,0,0,-38,49
1528558143344,0,0,-3.0839694656488548,0.648854961832061,-1.3587786259541985,-0.746826171875,0.60498046875,-0.152099609375,-38.4416271176978,50.128738704490615,0,0,0,0,-2,0,-1,0,0,0,-38,49