"time","speed","speed2","gyro.x","gyro.y","gyro.z","accel.x","accel.y","accel.z","rotation.x","rotation.y","vibration","mAvg.speed","mAvg.speed2","mAvg.vibration","mAvg.gyro.x","mAvg.gyro.y","mAvg.gyro.z","mAvg.accel.x","mAvg.accel.y","mAvg.accel.z","mAvg.rotation.x","mAvg.rotation.y"
1528558001830,0,0,-3.7251908396946565,0.3969465648854962,-1.4274809160305344,-0.657958984375,0.683349609375,-0.190673828125,-44.92962674581312,42.843384240554855,0,0,0,0,0,0,0,0,0,0,0,0
1528558001928,0,0,5.106870229007634,-4.534351145038168,-4.740458015267175,-0.77685546875,0.564208984375,-0.054931640625,-35.92197336937539,53.88151432837737,0,0,0,0,0,0,0,0,0,0,0,0
1528558002028,0,0,-5.580152671755725,1.6106870229007633,-0.5954198473282443,-0.742431640625,0.600830078125,-0.25048828125,-37.48120539827178,48.756152944973344,0,0,0,0,0,0,0,0,0,0,0,0
1528558002128,0,0,-3.633587786259542,0.648854961832061,-0.7938931297709924,-0.740234375,0.660400390625,-0.15869140625,-41.09916593250992,47.46218021245006,0,0,0,0,0,0,0,0,0,0,0,0
1528558002228,0,0,-4.923664122137405,1.183206106870229,-3.7251908396946565,-0.719482421875,0.649169921875,-0.0546875,-41.977028070045584,47.8401217335294,0,0,0,0,0,0,0,0,0,0,0,0
1528558002328,0,0,4.183206106870229,-4.977099236641221,-3.7404580152671754,-0.824951171875,0.562744140625,-0.1279296875,-33.983797777831036,55.024931836994384,0,0,0,0,0,0,0,0,0,0,0,0
1528558002428,0,0,-7.1603053435114505,1.9694656488549618,1.5419847328244274,-0.747802734375,0.54296875,-0.125,-35.60832237143944,53.31100959472354,0,0,0,0,0,0,0,0,0,0,0,0
1528558002529,0,0,-2,2.3740458015267176,-1.9694656488549618,-0.721923828125,0.684326171875,-0.215087890625,-42.25379824735162,45.18279933305086,0,0,0,0,0,0,0,0,0,0,0,0
1528558002628,0,0,-4.8320610687022905,1,0.3435114503816794,-0.844482421875,0.4814453125,-0.1630859375,-29.238544007254387,58.95509647205069,0,0,0,0,0,0,0,0,0,0,0,0
1528558002753,0,16.086965005678042,-10.603053435114504,5.0534351145038165,3.6259541984732824,-0.66943359375,0.691650390625,-0.220458984375,-44.4604796658165,42.681218494675825,0,0,0,0,0,0,0,0,0,0,0,0
1528558002853,0,16.086965005678042,1.8015267175572518,-1.6946564885496183,-3.648854961832061,-0.64794921875,0.66259765625,-0.112060546875,-45.21828556927538,43.95583743641059,0,0,0,0,0,0,0,0,0,0,0,0
1528558002954,0,16.086965005678042,2.618320610687023,-1.5572519083969465,-5.206106870229007,-0.720947265625,0.513916015625,-0.16796875,-34.76997582638017,53.1322010090132,0,0,0,0,0,0,0,0,0,0,0,0
1528558003054,0,16.086965005678042,-8.412213740458014,4.625954198473282,-1.251908396946565,-0.738525390625,0.6376953125,-0.265625,-39.094363850570645,46.91218523098527,0,0,0,0,0,0,0,0,0,0,0,0
1528558003158,0,16.086965005678042,-0.7175572519083969,-1.1603053435114503,-5.038167938931298,-0.688232421875,0.63916015625,-0.1181640625,-42.46803426436279,46.63684858906604,0,0,0,0,0,0,0,0,0,0,0,0
1528558003258,0,16.086965005678042,5.450381679389313,-4.748091603053435,-2.564885496183206,-0.816650390625,0.497314453125,-0.13623046875,-30.9919061698602,57.73154177814758,0,0,0,0,0,0,0,0,0,0,0,0
1528558003358,0,16.086965005678042,-12.450381679389313,6.923664122137405,1.4351145038167938,-0.690185546875,0.650634765625,-0.209228515625,-42.0552933976734,45.28099759936039,0,0,0,0,0,0,0,0,0,0,0,0
1528558003459,0,16.086965005678042,0.07633587786259542,-1.5877862595419847,-1.4732824427480915,-0.75732421875,0.638916015625,-0.040283203125,-40.1127404632645,49.791346623878745,0,0,0,0,0,0,0,0,0,0,0,0
1528558003559,0,16.086965005678042,-4.931297709923665,1.3893129770992367,0.5801526717557252,-0.79296875,0.537353515625,-0.076904296875,-33.99900414719685,55.60631016232875,0,0,0,0,0,0,0,0,0,0,0,0
1528558003659,0,16.086965005678042,-5.6183206106870225,-0.6793893129770993,2.3893129770992365,-0.709228515625,0.629150390625,-0.126953125,-41.12785064872087,47.85581927139945,0,0,0,0,0,0,0,0,0,0,0,0
1528558003759,0,16.086965005678042,-4.793893129770993,2.7480916030534353,-1.5038167938931297,-0.69384765625,0.658447265625,-0.094970703125,-43.23501075018582,46.20494531910204,0,0,0,0,0,0,0,0,0,0,0,0
1528558003860,0,16.086965005678042,0.16030534351145037,-0.8396946564885496,-2.83206106870229,-0.728271484375,0.60205078125,-0.15673828125,-38.94442238237286,49.49470638161228,0,0,0,0,0,0,0,0,0,0,0,0
1528558003960,0,16.086965005678042,-3.2519083969465647,1.916030534351145,-4.312977099236641,-0.73388671875,0.67138671875,-0.1943359375,-41.48813944511655,46.396893040526095,0,0,0,0,0,0,0,0,0,0,0,0
1528558004060,0,16.086965005678042,-1.4961832061068703,1.5419847328244274,-5.068702290076335,-0.74951171875,0.604248046875,-0.163818359375,-38.22383000446543,50.12827679452846,0,0,0,0,0,0,0,0,0,0,0,0
1528558004161,0,16.086965005678042,-5.374045801526718,3.351145038167939,-2.183206106870229,-0.789794921875,0.562744140625,-0.181640625,-34.775794174222554,53.177189674207064,0,0,0,0,0,0,0,0,0,0,0,0
1528558004261,0,0,-5.038167938931298,2.6030534351145036,0.8015267175572519,-0.750732421875,0.62158203125,-0.162841796875,-38.97808462823454,49.43948125012581,0,0,0,0,0,0,0,0,0,0,0,0
1528558004361,0,0,4.8320610687022905,-4.893129770992366,-2.33587786259542,-0.73193359375,0.5859375,-0.225830078125,-37.414217951141836,49.37258907869205,0,0,0,0,0,0,0,0,0,0,0,0
1528558004462,0,0,-1.0229007633587786,-0.0916030534351145,1.549618320610687,-0.785888671875,0.560546875,-0.16796875,-34.89621299555774,53.32866220893816,0,0,0,0,0,0,0,0,0,0,0,0
1528558004561,0,0,-9.213740458015268,2.717557251908397,4.1679389312977095,-0.698974609375,0.654541015625,-0.13037109375,-42.631264171678595,46.32384366380259,0,0,0,0,0,0,0,0,0,0,0,0
1528558004662,0,0,-0.7480916030534351,-1.9236641221374047,-1.8931297709923665,-0.67919921875,0.7021484375,-0.09521484375,-45.67314821478606,43.787376491577746,0,0,0,0,0,0,0,0,0,0,0,0
1528558004762,0,16.086965005678042,0.3435114503816794,-0.7404580152671756,-3.3282442748091605,-0.711181640625,0.578369140625,-0.14013671875,-38.586644935142566,50.077997824332044,0,0,0,0,0,0,0,0,0,0,0,0
1528558004862,0,16.086965005678042,-5.6183206106870225,3.3435114503816794,-2.4198473282442747,-0.78125,0.608154296875,-0.197265625,-37.043652471744714,50.70430848184422,0,0,0,0,0,0,0,0,0,0,0,0
1528558004962,0,16.086965005678042,-3.198473282442748,1.5725190839694656,-5.778625954198473,-0.713623046875,0.672119140625,-0.1083984375,-42.958425488198124,46.34824836540806,0,0,0,0,0,0,0,0,0,0,0,0
1528558005062,0,16.086965005678042,1.0763358778625953,-2.450381679389313,-3.5343511450381677,-0.81689453125,0.517578125,-0.206787109375,-31.559022706673918,55.69471563120744,0,0,0,0,0,0,0,0,0,0,0,0
1528558005163,0,16.086965005678042,-7.564885496183206,1.786259541984733,0.26717557251908397,-0.7734375,0.55859375,-0.098388671875,-35.619651797389686,53.74592240737818,0,0,0,0,0,0,0,0,0,0,0,0
1528558005263,0,16.086965005678042,-1.1068702290076335,-0.6641221374045801,-0.5343511450381679,-0.726806640625,0.616455078125,-0.138916015625,-39.79730217561976,48.99506078656754,0,0,0,0,0,0,0,0,0,0,0,0
1528558005364,0,16.086965005678042,-3.5267175572519083,-0.6030534351145038,0.8091603053435115,-0.794189453125,0.55029296875,-0.135498046875,-34.334218342566594,54.48855242901107,0,0,0,0,0,0,0,0,0,0,0,0
1528558005464,0,16.086965005678042,-10.625954198473282,4.076335877862595,3.572519083969466,-0.71044921875,0.6669921875,-0.170166015625,-42.39631434225369,45.90484205852936,0,0,0,0,0,0,0,0,0,0,0,0
1528558005564,0,16.086965005678042,-0.22137404580152673,-1.2748091603053435,-3.450381679389313,-0.67529296875,0.64404296875,-0.10595703125,-43.29526214856609,45.97463963286721,0,0,0,0,0,0,0,0,0,0,0,0
1528558005664,0,16.086965005678042,2.0229007633587788,-3.3053435114503817,-3.969465648854962,-0.7529296875,0.557373046875,-0.1376953125,-36.061932104249465,52.67348637638252,0,0,0,0,0,0,0,0,0,0,0,0
1528558005765,0,16.086965005678042,-5.99236641221374,3.877862595419847,-0.5725190839694656,-0.70556640625,0.608154296875,-0.2236328125,-39.40835170991542,47.43667319378989,0,0,0,0,0,0,0,0,0,0,0,0
1528558005865,0,16.086965005678042,-7.022900763358779,3.282442748091603,-2.3206106870229006,-0.661865234375,0.65869140625,-0.07568359375,-44.67622043942802,44.94983784737491,0,0,0,0,0,0,0,0,0,0,0,0
1528558005966,0,16.086965005678042,-1.3358778625954197,-0.48854961832061067,-4.267175572519084,-0.78076171875,0.5537109375,-0.20703125,-34.430745712314646,52.86901260499322,0,0,0,0,0,0,0,0,0,0,0,0
1528558006066,0,16.086965005678042,-1.2442748091603053,-1.0610687022900764,-1.5038167938931297,-0.79052734375,0.52490234375,-0.115234375,-33.30676108269472,55.79203543921426,0,0,0,0,0,0,0,0,0,0,0,0
1528558006166,0,16.086965005678042,-4.961832061068702,1.8854961832061068,0.4961832061068702,-0.7783203125,0.613525390625,-0.15869140625,-37.681698631491365,50.847168597660875,0,0,0,0,0,0,0,0,0,0,0,0
1528558006266,0,0,-1.297709923664122,-1.6793893129770991,0.09923664122137404,-0.779541015625,0.552734375,-0.217529296875,-34.331482436352786,52.69314329829546,0,0,0,0,0,0,0,0,0,0,0,0
1528558006366,0,0,-5.450381679389313,0.549618320610687,2.8244274809160306,-0.767333984375,0.605712890625,-0.158447265625,-37.70632368446572,50.787821867319806,0,0,0,0,0,0,0,0,0,0,0,0
1528558006466,0,0,-4.931297709923665,0.5343511450381679,-0.7557251908396947,-0.693115234375,0.66552734375,-0.080322265625,-43.645842575160906,45.95626311795806,0,0,0,0,0,0,0,0,0,0,0,0
1528558006566,0,0,0.3816793893129771,-1.1603053435114503,-3.16793893129771,-0.708984375,0.607177734375,-0.153076171875,-39.93322016281234,48.54898593274506,0,0,0,0,0,0,0,0,0,0,0,0
1528558006666,0,0,-1.0916030534351144,0.22137404580152673,-1.83206106870229,-0.73779296875,0.586669921875,-0.137451171875,-38.01540068563884,50.7614380820393,0,0,0,0,0,0,0,0,0,0,0,0
1528558006802,11.260875503974628,16.086965005678042,-5.687022900763359,2.6030534351145036,-3.0839694656488548,-0.693115234375,0.598388671875,-0.123291015625,-40.36418951050896,48.6048970859589,0,0,9.6,0,-2.4,0,-1,0,0,0,-38.4,49.2
1528558006902,11.260875503974628,16.086965005678042,-0.20610687022900764,-0.2748091603053435,-2.5419847328244276,-0.77685546875,0.579833984375,-0.206787109375,-35.80180406318015,51.605617236692,0,0,9.6,0,-2.4,0,-1,0,0,0,-38.4,49.2
1528558007002,11.260875503974628,16.086965005678042,-3,0.6870229007633588,-0.6335877862595419,-0.771728515625,0.5576171875,-0.134521484375,-35.444129374207,53.377145025689465,0,0,9.6,0,-2.4,0,-1,0,0,0,-38.4,49.2
1528558007102,11.260875503974628,16.086965005678042,-2.2748091603053435,0.9007633587786259,-0.6717557251908397,-0.705322265625,0.5888671875,-0.24755859375,-38.23019818928857,47.833872432187015,0,0,9.6,0,-2.4,0,-1,0,0,0,-38.4,49.2
1528558007202,12.869572004542432,16.086965005678042,-0.7557251908396947,-2.33587786259542,0.25190839694656486,-0.7646484375,0.573974609375,-0.18701171875,-36.097588527582246,51.70972269383236,0,0,9.6,0,-2.4,0,-1,0,0,0,-38.4,49.2
1528558007302,12.869572004542432,16.086965005678042,-8.458015267175572,2.2442748091603053,2.3893129770992365,-0.743896484375,0.58056640625,-0.119140625,-37.61852954174344,51.45554040055306,0,0,9.6,0,-2.4,0,-1,0,0,0,-38.4,49.2
1528558007403,12.869572004542432,16.086965005678042,-2.045801526717557,-0.48854961832061067,-1.6564885496183206,-0.70166015625,0.66943359375,-0.10009765625,-43.36535842626075,46.029994756419086,0,0,9.6,0,-2.4,0,-1,0,0,0,-38.4,49.2
1528558007503,12.869572004542432,16.086965005678042,2.0229007633587788,-2.7480916030534353,-3.183206106870229,-0.71923828125,0.541748046875,-0.2314453125,-35.64110706392583,50.67966157391728,0,0,9.6,0,-2.4,0,-1,0,0,0,-38.4,49.2
1528558007604,12.869572004542432,16.086965005678042,-4.748091603053435,2.450381679389313,-0.8396946564885496,-0.759765625,0.587890625,-0.1533203125,-37.179918593325525,51.35205606132605,0,0,9.6,0,-2.4,0,-1,0,0,0,-38.4,49.2
1528558007704,11.260875503974628,0,-8.916030534351146,4.396946564885496,-3.3206106870229006,-0.699462890625,0.652099609375,-0.087646484375,-42.77043620211743,46.75111282395454,0,0,9.6,0,-2.4,0,-1,0,0,0,-38.4,49.2
1528558007805,11.260875503974628,0,0.9923664122137404,-2.2977099236641223,-4.572519083969466,-0.81689453125,0.54248046875,-0.12939453125,-33.26083845050591,55.67840974718431,0,2.4,12.4,0,-2.6,0,-1,0,0,0,-38.4,49
1528558007904,11.260875503974628,0,-1.6641221374045803,-0.26717557251908397,-0.13740458015267176,-0.784912109375,0.52734375,-0.138427734375,-33.49021337944153,55.21567380149532,0,2.4,12.4,0,-2.6,0,-1,0,0,0,-38.4,49
1528558008004,11.260875503974628,0,-6.7251908396946565,2.6412213740458017,1.0610687022900764,-0.707275390625,0.627197265625,-0.099365234375,-41.28816280763836,48.081261285239464,0,2.4,12.4,0,-2.6,0,-1,0,0,0,-38.4,49
1528558008108,11.260875503974628,0,-1.0916030534351144,-1.5038167938931297,0.4122137404580153,-0.7548828125,0.577880859375,-0.255126953125,-35.95055747028513,50.07709165126259,0,2.4,12.4,0,-2.6,0,-1,0,0,0,-38.4,49
1528558008208,11.260875503974628,16.086965005678042,-6.770992366412214,1.2900763358778626,2.4427480916030535,-0.73583984375,0.587646484375,-0.160888671875,-37.96048534468556,50.37535508265064,0,2.4,12.4,0,-2.6,0,-1,0,0,0,-38.4,49
1528558008308,11.260875503974628,16.086965005678042,-5.694656488549619,2.122137404580153,-1.0076335877862594,-0.6904296875,0.70556640625,-0.08544921875,-45.40352806839291,44.17027319989842,0,2.4,12.4,0,-2.6,0,-1,0,0,0,-38.4,49
1528558008409,11.260875503974628,16.086965005678042,2.954198473282443,-2.854961832061069,-4.374045801526718,-0.733154296875,0.634521484375,-0.202880859375,-39.83216832860839,47.74073989140412,0,2.4,12.4,0,-2.6,0,-1,0,0,0,-38.4,49
1528558008509,11.260875503974628,16.086965005678042,-2.572519083969466,0.3435114503816794,-1.2290076335877862,-0.80615234375,0.5048828125,-0.17236328125,-31.48516474338141,56.50428427144018,0,2.4,12.4,0,-2.6,0,-1,0,0,0,-38.4,49
1528558008609,11.260875503974628,16.086965005678042,-10.038167938931299,5.534351145038168,-1.549618320610687,-0.6552734375,0.718994140625,-0.101806640625,-47.31437074999597,42.06227542735413,0,2.4,12.4,0,-2.6,0,-1,0,0,0,-38.4,49
1528558008709,11.260875503974628,16.086965005678042,2.83206106870229,-3.7251908396946565,-5.648854961832061,-0.759033203125,0.59765625,-0.185791015625,-37.409237325479495,50.492371778510424,0,2.4,12.4,0,-2.6,0,-1,0,0,0,-38.4,49
1528558008809,11.260875503974628,16.086965005678042,-1.7938931297709924,-0.33587786259541985,-2.0610687022900764,-0.81005859375,0.498779296875,-0.108642578125,-31.394392278192147,57.782117134099266,0,4.6,11,0,-2.4,0,-1,0,0,0,-38.2,49.4
1528558008909,11.260875503974628,16.086965005678042,-6.916030534351145,4.076335877862595,2.1068702290076335,-0.757080078125,0.613037109375,-0.160888671875,-38.38102734929097,50.06524871048037,0,4.6,11,0,-2.4,0,-1,0,0,0,-38.2,49.4
1528558009009,11.260875503974628,16.086965005678042,0.6106870229007634,-1.9770992366412214,-1.381679389312977,-0.72998046875,0.606689453125,-0.143310546875,-39.198485409601034,49.50346293092638,0,4.6,11,0,-2.4,0,-1,0,0,0,-38.2,49.4
1528558009109,11.260875503974628,16.086965005678042,-2.4427480916030535,-0.816793893129771,1.618320610687023,-0.78955078125,0.529052734375,-0.161376953125,-33.28472164185633,54.98693245612117,0,4.6,11,0,-2.4,0,-1,0,0,0,-38.2,49.4
1528558009209,12.869572004542432,16.086965005678042,-9.366412213740459,4.129770992366412,0.5419847328244275,-0.67822265625,0.7099609375,-0.119140625,-45.87472271008352,43.29301554919171,0,4.6,11,0,-2.4,0,-1,0,0,0,-38.2,49.4
1528558009310,12.869572004542432,16.086965005678042,1.7786259541984732,-2.122137404580153,-3.435114503816794,-0.735595703125,0.655029296875,-0.15869140625,-41.03792470752476,47.50301793039472,0,4.6,11,0,-2.4,0,-1,0,0,0,-38.2,49.4
1528558009411,12.869572004542432,16.086965005678042,-0.2900763358778626,1.786259541984733,-1.9236641221374047,-0.79541015625,0.56884765625,-0.1767578125,-34.92014713823355,53.170725556267925,0,4.6,11,0,-2.4,0,-1,0,0,0,-38.2,49.4
1528558009511,12.869572004542432,16.086965005678042,-8.282442748091603,2.3740458015267176,-1.0458015267175573,-0.720458984375,0.662353515625,-0.164794921875,-41.86680680153523,46.54789455594026,0,4.6,11,0,-2.4,0,-1,0,0,0,-38.2,49.4
1528558009611,12.869572004542432,16.086965005678042,-0.7709923664122137,-1.3587786259541985,-4.885496183206107,-0.71142578125,0.611572265625,-0.11572265625,-40.31431065300073,48.81740340147081,0,4.6,11,0,-2.4,0,-1,0,0,0,-38.2,49.4
1528558009711,11.260875503974628,0,-0.44274809160305345,-1.465648854961832,-3,-0.81982421875,0.524658203125,-0.119873046875,-32.343255301873,56.71687870166131,0,4.6,11,0,-2.4,0,-1,0,0,0,-38.2,49.4
1528558009811,11.260875503974628,0,-8.549618320610687,4.305343511450381,1.8854961832061068,-0.7646484375,0.61474609375,-0.068603515625,-38.68574964017572,51.02887946198863,0,7,12.2,0,-2.4,0,-1,0,0,0,-37.8,49.8
1528558009911,11.260875503974628,0,0.4580152671755725,-0.6259541984732825,-0.7786259541984732,-0.732666015625,0.638427734375,-0.2158203125,-39.89111030217394,47.391559631055266,0,7,12.2,0,-2.4,0,-1,0,0,0,-37.8,49.8
1528558010011,11.260875503974628,0,-1.4961832061068703,-2.0839694656488548,1.5114503816793894,-0.8017578125,0.570068359375,-0.16796875,-34.834639861902374,53.452486900911595,0,7,12.2,0,-2.4,0,-1,0,0,0,-37.8,49.8
1528558010111,11.260875503974628,0,-9.534351145038167,3.5877862595419847,2.854961832061069,-0.74267578125,0.650390625,-0.1943359375,-40.27176941935366,47.57277195929824,0,7,12.2,0,-2.4,0,-1,0,0,0,-37.8,49.8
1528558010212,11.260875503974628,16.086965005678042,-1.9083969465648856,-1.3053435114503817,-2.1526717557251906,-0.716796875,0.63720703125,-0.068603515625,-41.50628477441875,48.20004254473542,0,7,12.2,0,-2.4,0,-1,0,0,0,-37.8,49.8
1528558010312,11.260875503974628,16.086965005678042,-3.145038167938931,0.9923664122137404,-2.2519083969465647,-0.775390625,0.566162109375,-0.170654296875,-35.49256013500491,52.6704027356642,0,7,12.2,0,-2.4,0,-1,0,0,0,-37.8,49.8
1528558010412,11.260875503974628,16.086965005678042,-4.67175572519084,5.557251908396947,-1.7557251908396947,-0.6767578125,0.667724609375,-0.169677734375,-43.74219079026523,44.488675993535516,0,7,12.2,0,-2.4,0,-1,0,0,0,-37.8,49.8
1528558010513,11.260875503974628,16.086965005678042,-7.236641221374046,2.3206106870229006,-5.229007633587786,-0.711669921875,0.629150390625,-0.08349609375,-41.28396367584018,48.27344479248079,0,7,12.2,0,-2.4,0,-1,0,0,0,-37.8,49.8
1528558010613,11.260875503974628,16.086965005678042,1.6946564885496183,-2.9236641221374047,-3.16793893129771,-0.812744140625,0.5068359375,-0.24609375,-30.830858364144333,55.268959137897426,0,7,12.2,0,-2.4,0,-1,0,0,0,-37.8,49.8
1528558010713,11.260875503974628,16.086965005678042,-3.213740458015267,1.0763358778625953,0.22900763358778625,-0.735595703125,0.5859375,-0.1162109375,-38.19532575246868,50.92120068808117,0,7,12.2,0,-2.4,0,-1,0,0,0,-37.8,49.8
1528558011161,11.260875503974628,16.086965005678042,2.381679389312977,-0.20610687022900764,-4.603053435114504,-0.727783203125,0.59521484375,-0.142333984375,-38.75194064250755,49.939356039950056,0,9.2,10.8,0,-2.6,0.2,-0.8,0,0,0,-37.8,49.6
1528558011261,11.260875503974628,0,-0.6870229007633588,-0.3969465648854962,-1.0916030534351144,-0.77001953125,0.521240234375,-0.124755859375,-33.75104564659559,55.160652729350296,0,9.2,10.8,0,-2.6,0.2,-0.8,0,0,0,-37.8,49.6
1528558011361,11.260875503974628,0,-9.274809160305344,5.236641221374046,0.7251908396946565,-0.697265625,0.669677734375,-0.1591796875,-43.117129203271475,45.36924255197473,0,9.2,10.8,0,-2.6,0.2,-0.8,0,0,0,-37.8,49.6
1528558011461,11.260875503974628,0,-4.297709923664122,1.5038167938931297,-4.961832061068702,-0.684814453125,0.652099609375,-0.11962890625,-43.168346099348675,45.92803694287965,0,9.2,10.8,0,-2.6,0.2,-0.8,0,0,0,-37.8,49.6
1528558011561,11.260875503974628,0,2.480916030534351,-3.2595419847328246,-4.1679389312977095,-0.8291015625,0.4677734375,-0.148193359375,-29.047404754452604,59.38171404298058,0,9.2,10.8,0,-2.6,0.2,-0.8,0,0,0,-37.8,49.6
1528558011661,11.260875503974628,0,-3.6717557251908395,1.5725190839694656,0.0916030534351145,-0.789306640625,0.556640625,-0.2216796875,-34.1748516005127,52.79806794213739,0,9.2,10.8,0,-2.6,0.2,-0.8,0,0,0,-37.8,49.6
1528558011761,11.260875503974628,16.086965005678042,-4.114503816793893,1.5725190839694656,-0.19083969465648856,-0.731201171875,0.6943359375,-0.12060546875,-43.134799388177484,46.056012669146014,0,11.4,9.6,0,-2.4,0.2,-1,0,0,0,-37.6,49.8
1528558011862,11.260875503974628,16.086965005678042,1.9770992366412214,-0.9541984732824428,0.48854961832061067,-0.704833984375,0.615234375,-0.305908203125,-38.68479220248494,45.73034115853764,0,11.4,9.6,0,-2.4,0.2,-1,0,0,0,-37.6,49.8
1528558011961,11.260875503974628,16.086965005678042,-9.50381679389313,0.29770992366412213,2.3053435114503817,-0.73486328125,0.635986328125,-0.088134765625,-40.672155540406756,48.85566535679972,0,11.4,9.6,0,-2.4,0.2,-1,0,0,0,-37.6,49.8
1528558012061,11.260875503974628,16.086965005678042,-2.282442748091603,1.8015267175572518,-0.5801526717557252,-0.688232421875,0.618408203125,-0.08935546875,-41.703170131031975,47.764411025940255,0,11.4,9.6,0,-2.4,0.2,-1,0,0,0,-37.6,49.8
1528558012161,11.260875503974628,16.086965005678042,-2.633587786259542,3.633587786259542,-2.1374045801526718,-0.691650390625,0.639404296875,-0.153564453125,-42.06577875560645,46.44623047502124,0,11.4,9.6,0,-2.4,0.2,-1,0,0,0,-37.6,49.8
1528558012261,11.260875503974628,16.086965005678042,-2.9618320610687023,1.748091603053435,-4.351145038167939,-0.763427734375,0.64013671875,-0.166259765625,-39.327741898844884,49.09684938488541,0,11.4,9.6,0,-2.4,0.2,-1,0,0,0,-37.6,49.8
1528558012361,11.260875503974628,16.086965005678042,-2.0839694656488548,1.4274809160305344,-4.519083969465649,-0.754638671875,0.5166015625,-0.180908203125,-33.651958838520706,54.045509491015224,0,11.4,9.6,0,-2.4,0.2,-1,0,0,0,-37.6,49.8
1528558012461,11.260875503974628,16.086965005678042,-0.8625954198473282,-1.4351145038167938,-0.03816793893129771,-0.832763671875,0.517333984375,-0.166259765625,-31.349892046765383,56.874806409838456,0,11.4,9.6,0,-2.4,0.2,-1,0,0,0,-37.6,49.8
1528558012561,11.260875503974628,16.086965005678042,-7.656488549618321,4.3816793893129775,0.9389312977099237,-0.684326171875,0.65869140625,-0.085693359375,-43.683832761318406,45.8532313956769,0,11.4,9.6,0,-2.4,0.2,-1,0,0,0,-37.6,49.8
1528558012661,11.260875503974628,16.086965005678042,-2.030534351145038,0.9312977099236641,-1.3511450381679388,-0.737060546875,0.567626953125,-0.16748046875,-36.905785090875234,51.237441983260176,0,11.4,9.6,0,-2.4,0.2,-1,0,0,0,-37.6,49.8
1528558012761,12.869572004542432,16.086965005678042,-4.763358778625954,-1.8931297709923665,1.8473282442748091,-0.826171875,0.5810546875,-0.164794921875,-34.59489722291644,53.83138188630704,0,11.2,10,0,-2.4,0.4,-0.8,0,0,0,-37.8,49.8
1528558012861,12.869572004542432,16.086965005678042,-7.755725190839694,2.50381679389313,3.1755725190839694,-0.7578125,0.67919921875,-0.143310546875,-41.36888325326824,47.510416938110055,0,11.2,10,0,-2.4,0.4,-0.8,0,0,0,-37.8,49.8
1528558012961,12.869572004542432,16.086965005678042,-0.7251908396946565,-1.381679389312977,-2.7099236641221376,-0.68603515625,0.669921875,-0.14990234375,-43.65153520665028,44.98108828911244,0,11.2,10,0,-2.4,0.4,-0.8,0,0,0,-37.8,49.8
1528558013062,12.869572004542432,16.086965005678042,7.259541984732825,-4.809160305343512,-3.1526717557251906,-0.733642578125,0.620361328125,-0.129150390625,-39.787028427056484,49.182144460683254,0,11.2,10,0,-2.4,0.4,-0.8,0,0,0,-37.8,49.8
1528558013162,12.869572004542432,16.086965005678042,-6.259541984732825,3.3206106870229006,-0.7938931297709924,-0.730224609375,0.6240234375,-0.2060546875,-39.43548231864222,48.01446562203976,0,11.2,10,0,-2.4,0.4,-0.8,0,0,0,-37.8,49.8
1528558013262,11.260875503974628,0,-4.564885496183206,0.8473282442748091,-5.6183206106870225,-0.649658203125,0.68408203125,-0.06982421875,-46.314154963737515,43.37328383786322,0,11.2,10,0,-2.4,0.4,-0.8,0,0,0,-37.8,49.8
1528558013362,11.260875503974628,0,-3.954198473282443,3.3206106870229006,-5.770992366412214,-0.83544921875,0.53173828125,-0.220703125,-31.60647184692068,55.42863909239573,0,11.2,10,0,-2.4,0.4,-0.8,0,0,0,-37.8,49.8
1528558013462,11.260875503974628,0,-10.01526717557252,5.580152671755725,1.3587786259541985,-0.75927734375,0.57666015625,-0.112060546875,-36.91924347444669,52.271136178133816,0,11.2,10,0,-2.4,0.4,-0.8,0,0,0,-37.8,49.8
1528558013562,11.260875503974628,0,-4.251908396946565,1.3587786259541985,1.2061068702290076,-0.73095703125,0.632568359375,-0.135009765625,-40.39788858594665,48.49475034230184,0,11.2,10,0,-2.4,0.4,-0.8,0,0,0,-37.8,49.8
1528558013662,11.260875503974628,0,-0.8854961832061069,-2.2595419847328246,0.9236641221374046,-0.780517578125,0.5380859375,-0.166748046875,-33.98716915458594,54.18051581050062,0,11.2,10,0,-2.4,0.4,-0.8,0,0,0,-37.8,49.8
1528558013762,11.260875503974628,16.086965005678042,-12.396946564885496,6.877862595419847,1.984732824427481,-0.72705078125,0.65576171875,-0.28125,-40.07058610201943,45.53774398836504,0,11.4,9.8,0,-2.6,0.4,-0.6,0,0,0,-37.8,49.6
1528558013862,11.260875503974628,16.086965005678042,-4.083969465648855,0.816793893129771,-1.7404580152671756,-0.646240234375,0.675537109375,-0.099609375,-45.933659156068984,43.4225469325951,0,11.4,9.8,0,-2.6,0.4,-0.6,0,0,0,-37.8,49.6
1528558013962,11.260875503974628,16.086965005678042,4.526717557251908,-4.351145038167939,-4.374045801526718,-0.75390625,0.640625,-0.09521484375,-40.1323637271503,49.33494293237872,0,11.4,9.8,0,-2.6,0.4,-0.6,0,0,0,-37.8,49.6
1528558014062,11.260875503974628,16.086965005678042,8.198473282442748,-3.213740458015267,-5.3893129770992365,-1.161865234375,0.58837890625,-0.4208984375,-25.460507919243934,58.091874784238684,0,11.4,9.8,0,-2.6,0.4,-0.6,0,0,0,-37.8,49.6
1528558014162,11.260875503974628,16.086965005678042,-8.977099236641221,5.106870229007634,-5.00763358778626,-0.775146484375,0.47119140625,-0.181884765625,-30.617065689675385,56.912140254990916,0,11.4,9.8,0,-2.6,0.4,-0.6,0,0,0,-37.8,49.6
1528558014262,11.260875503974628,16.086965005678042,-7.786259541984733,1.816793893129771,-0.3282442748091603,-0.779541015625,0.583984375,-0.125244140625,-36.48860197588945,52.54162257581394,0,11.4,9.8,0,-2.6,0.4,-0.6,0,0,0,-37.8,49.6
1528558014362,11.260875503974628,16.086965005678042,-9.778625954198473,6.526717557251908,-1.3053435114503817,-0.794921875,0.54736328125,-0.15234375,-34.06922539598517,54.44481372783349,0,11.4,9.8,0,-2.6,0.4,-0.6,0,0,0,-37.8,49.6
1528558014462,11.260875503974628,16.086965005678042,0.9312977099236641,-0.7022900763358778,-3.7404580152671754,-0.721435546875,0.58984375,-0.1357421875,-38.78180942926418,50.00441436652941,0,11.4,9.8,0,-2.6,0.4,-0.6,0,0,0,-37.8,49.6
1528558014562,11.260875503974628,16.086965005678042,-1.2442748091603053,-1.3206106870229009,2.7938931297709924,-0.808837890625,0.525390625,-0.135986328125,-32.64249291564991,56.1396715598068,0,11.4,9.8,0,-2.6,0.4,-0.6,0,0,0,-37.8,49.6
1528558014663,11.260875503974628,16.086965005678042,-6.419847328244275,0.4122137404580153,3.8702290076335877,-0.7392578125,0.700439453125,-0.1318359375,-43.007916192227576,46.04633660359299,0,11.4,9.8,0,-2.6,0.4,-0.6,0,0,0,-37.8,49.6
1528558014763,12.869572004542432,16.086965005678042,1.0610687022900764,-2.6717557251908395,-1.7404580152671756,-0.700927734375,0.655517578125,-0.02978515625,-43.05682359088882,46.88791590092927,0,11.2,10.2,0,-2.8,0.6,-0.6,0,0,0,-37.6,49.8
1528558014867,12.869572004542432,16.086965005678042,7.442748091603053,-4.122137404580153,-1.3282442748091603,-0.795654296875,0.586669921875,-0.28369140625,-34.7806222442944,50.68164449801449,0,11.2,10.2,0,-2.8,0.6,-0.6,0,0,0,-37.6,49.8
1528558014964,12.869572004542432,16.086965005678042,-7.854961832061068,5.564885496183206,-2.6106870229007635,-0.733154296875,0.565673828125,-0.198486328125,-36.6769468942647,50.72779236650154,0,11.2,10.2,0,-2.8,0.6,-0.6,0,0,0,-37.6,49.8
1528558015074,12.869572004542432,16.086965005678042,-1.4045801526717556,-0.20610687022900764,-4.061068702290076,-0.727294921875,0.597412109375,-0.13134765625,-38.950000622338685,49.934974118884206,0,11.2,10.2,0,-2.8,0.6,-0.6,0,0,0,-37.6,49.8
1528558015174,12.869572004542432,16.086965005678042,-0.6564885496183206,-0.5343511450381679,-2.7099236641221376,-0.695068359375,0.654541015625,-0.11767578125,-42.87610818224205,46.264981832486605,0,11.2,10.2,0,-2.8,0.6,-0.6,0,0,0,-37.6,49.8
1528558015274,11.260875503974628,0,-3.572519083969466,0.2595419847328244,2.3282442748091605,-0.81884765625,0.6103515625,-0.148193359375,-36.258700404371545,52.51053935156436,0,11.2,10.2,0,-2.8,0.6,-0.6,0,0,0,-37.6,49.8
1528558015374,11.260875503974628,0,-5.320610687022901,1.9923664122137406,0.4580152671755725,-0.7568359375,0.665283203125,-0.1767578125,-40.56342910352803,47.71257865930969,0,11.2,10.2,0,-2.8,0.6,-0.6,0,0,0,-37.6,49.8
1528558015474,11.260875503974628,0,3.9083969465648853,-4.66412213740458,-0.9083969465648855,-0.755126953125,0.553466796875,-0.152099609375,-35.69780554315208,52.76086689187216,0,11.2,10.2,0,-2.8,0.6,-0.6,0,0,0,-37.6,49.8
1528558015574,11.260875503974628,0,-5.259541984732825,1.3587786259541985,1.3740458015267176,-0.7197265625,0.53466796875,-0.1181640625,-36.24374374522811,52.73603498397401,0,11.2,10.2,0,-2.8,0.6,-0.6,0,0,0,-37.6,49.8
1528558015674,11.260875503974628,0,-2.9236641221374047,0.48091603053435117,1.366412213740458,-0.6669921875,0.66259765625,-0.1162109375,-44.38231807322337,44.755404773223574,0,11.2,10.2,0,-2.8,0.6,-0.6,0,0,0,-37.6,49.8
1528558015774,11.260875503974628,16.086965005678042,2.8473282442748094,-2.7480916030534353,-0.9389312977099237,-0.749755859375,0.601318359375,-0.13671875,-38.27372775934018,50.56312000791258,0,11.4,10,0,-2.4,0.4,-0.6,0,0,0,-37.6,49.8
1528558015874,11.260875503974628,16.086965005678042,-4.801526717557252,3.50381679389313,-0.8854961832061069,-0.744384765625,0.641845703125,-0.1298828125,-40.34513315522024,48.661042943068416,0,11.4,10,0,-2.4,0.4,-0.6,0,0,0,-37.6,49.8
1528558015974,11.260875503974628,16.086965005678042,-3.732824427480916,3.198473282442748,-5.442748091603053,-0.669189453125,0.648193359375,-0.18212890625,-43.06467251745064,44.824798821058714,0,11.4,10,0,-2.4,0.4,-0.6,0,0,0,-37.6,49.8
1528558016074,11.260875503974628,16.086965005678042,1.2748091603053435,-1.2290076335877862,-6.259541984732825,-0.851318359375,0.481201171875,-0.123046875,-29.223916693026826,59.7394589235109,0,11.4,10,0,-2.4,0.4,-0.6,0,0,0,-37.6,49.8
1528558016174,11.260875503974628,16.086965005678042,-3.404580152671756,-1.9389312977099236,0.7709923664122137,-0.802734375,0.4794921875,-0.0966796875,-30.66955115291193,58.64418685264291,0,11.4,10,0,-2.4,0.4,-0.6,0,0,0,-37.6,49.8
1528558016274,12.869572004542432,16.086965005678042,-9.290076335877863,4.297709923664122,0.26717557251908397,-0.6708984375,0.7451171875,-0.094482421875,-47.72043941671854,41.77252588889261,0,11.4,10,0,-2.4,0.4,-0.6,0,0,0,-37.6,49.8
1528558016374,12.869572004542432,16.086965005678042,6.824427480916031,-5.0458015267175576,-2.687022900763359,-0.7939453125,0.597412109375,-0.17236328125,-36.32819824469362,51.93365256191557,0,11.4,10,0,-2.4,0.4,-0.6,0,0,0,-37.6,49.8
1528558016473,12.869572004542432,16.086965005678042,-7.229007633587786,2.2519083969465647,2.7557251908396947,-0.804443359375,0.585205078125,-0.225341796875,-35.01129480880764,52.0623431073011,0,11.4,10,0,-2.4,0.4,-0.6,0,0,0,-37.6,49.8
1528558016574,12.869572004542432,16.086965005678042,-3.931297709923664,0.48091603053435117,0.7862595419847328,-0.695556640625,0.6015625,0.040771484375,-40.80676344700015,49.07965133279868,0,11.4,10,0,-2.4,0.4,-0.6,0,0,0,-37.6,49.8
1528558016674,12.869572004542432,16.086965005678042,3.3893129770992365,-3.6030534351145036,-4,-0.71240234375,0.588134765625,-0.183349609375,-38.64271549517859,49.14831171188988,0,11.4,10,0,-2.4,0.4,-0.6,0,0,0,-37.6,49.8
1528558016774,12.869572004542432,16.086965005678042,-11.625954198473282,5.977099236641221,-1.3129770992366412,-0.7421875,0.6640625,-0.25244140625,-40.267217438724224,46.25256075850538,0,11.6,12.8,0,-2.2,0.4,-0.4,0,0,0,-37.8,49.6
1528558016874,12.869572004542432,16.086965005678042,-5.450381679389313,-1.0763358778625953,-3.6793893129770994,-0.779052734375,0.61474609375,-0.140625,-37.83093505013483,51.010629065972445,0,11.6,12.8,0,-2.2,0.4,-0.4,0,0,0,-37.8,49.6
1528558016974,12.869572004542432,16.086965005678042,-1.1755725190839694,-0.13740458015267176,-3.3282442748091605,-0.7568359375,0.547119140625,-0.0703125,-35.746474939924326,53.91362086470667,0,11.6,12.8,0,-2.2,0.4,-0.4,0,0,0,-37.8,49.6
1528558017074,12.869572004542432,16.086965005678042,0.9541984732824428,-1.099236641221374,-0.9847328244274809,-0.775146484375,0.50048828125,-0.1455078125,-32.39861889155681,56.082979562020505,0,11.6,12.8,0,-2.2,0.4,-0.4,0,0,0,-37.8,49.6
1528558017173,12.869572004542432,16.086965005678042,-1.900763358778626,-0.09923664122137404,0.9847328244274809,-0.806396484375,0.518310546875,-0.147216796875,-32.30510839347212,56.250230116558136,0,11.6,12.8,0,-2.2,0.4,-0.4,0,0,0,-37.8,49.6
1528558017274,12.869572004542432,16.086965005678042,-5.679389312977099,0.6183206106870229,0.8702290076335878,-0.734375,0.6376953125,-0.08984375,-40.75886398526334,48.75160595038174,0,11.6,12.8,0,-2.2,0.4,-0.4,0,0,0,-37.8,49.6
1528558017375,12.869572004542432,16.086965005678042,-2.1297709923664123,1.2671755725190839,-0.2748091603053435,-0.742431640625,0.63427734375,-0.092529296875,-40.29013079609848,49.19375776741728,0,11.6,12.8,0,-2.2,0.4,-0.4,0,0,0,-37.8,49.6
1528558017475,12.869572004542432,16.086965005678042,-4.900763358778626,2.49618320610687,-1.282442748091603,-0.708740234375,0.697509765625,-0.116455078125,-44.16094052364051,45.063762583737685,0,11.6,12.8,0,-2.2,0.4,-0.4,0,0,0,-37.8,49.6
1528558017575,12.869572004542432,16.086965005678042,-3.6564885496183206,-0.7938931297709924,-4,-0.76611328125,0.583251953125,-0.244384765625,-35.95354731110613,50.462315296119094,0,11.6,12.8,0,-2.2,0.4,-0.4,0,0,0,-37.8,49.6
1528558017675,12.869572004542432,16.086965005678042,-1.3969465648854962,-0.04580152671755725,-3.1603053435114505,-0.79443359375,0.482421875,-0.013916015625,-31.26442709770656,58.721101379605,0,11.6,12.8,0,-2.2,0.4,-0.4,0,0,0,-37.8,49.6
1528558017775,11.260875503974628,0,-3.6259541984732824,2.450381679389313,-2.282442748091603,-0.737548828125,0.611083984375,-0.1455078125,-39.10647331460105,49.57902844759078,0,11.8,12.8,0,-2.2,0.2,-0.6,0,0,0,-37.4,50
1528558017875,11.260875503974628,0,0.5572519083969466,-3.33587786259542,-1.8549618320610688,-0.76611328125,0.558349609375,-0.274169921875,-34.45755286862599,50.92575816894023,0,11.8,12.8,0,-2.2,0.2,-0.6,0,0,0,-37.4,50
1528558017975,11.260875503974628,0,-10.473282442748092,3.145038167938931,1.9618320610687023,-0.771240234375,0.68310546875,-0.216064453125,-40.46039880631047,47.1087421105052,0,11.8,12.8,0,-2.2,0.2,-0.6,0,0,0,-37.4,50
1528558018076,11.260875503974628,0,-3.435114503816794,3.6717557251908395,0.13740458015267176,-0.712646484375,0.6142578125,-0.01708984375,-40.75118896422182,49.229703814293366,0,11.8,12.8,0,-2.2,0.2,-0.6,0,0,0,-37.4,50
1528558018176,11.260875503974628,0,-0.9007633587786259,-0.6564885496183206,-3.1755725190839694,-0.70751953125,0.59375,-0.082763671875,-39.81174871447968,49.72495883869316,0,11.8,12.8,0,-2.2,0.2,-0.6,0,0,0,-37.4,50
1528558018276,12.869572004542432,16.086965005678042,-3.969465648854962,0.2748091603053435,-3.099236641221374,-0.754638671875,0.564697265625,-0.191650390625,-35.952541451123636,51.6833972565428,0,11.8,12.8,0,-2.2,0.2,-0.6,0,0,0,-37.4,50
1528558018376,12.869572004542432,16.086965005678042,-3.7022900763358777,0.816793893129771,-1.6717557251908397,-0.786376953125,0.563720703125,-0.11181640625,-35.364057058275755,53.839759530131154,0,11.8,12.8,0,-2.2,0.2,-0.6,0,0,0,-37.4,50
1528558018476,12.869572004542432,16.086965005678042,-5.412213740458015,3.0916030534351147,-1.9389312977099236,-0.734130859375,0.612060546875,-0.142333984375,-39.29963808789628,49.437535766377785,0,11.8,12.8,0,-2.2,0.2,-0.6,0,0,0,-37.4,50
1528558018576,12.869572004542432,16.086965005678042,5.580152671755725,-5.709923664122138,-1.6030534351145038,-0.797119140625,0.48193359375,-0.196533203125,-30.413587548367545,56.85810314266562,0,11.8,12.8,0,-2.2,0.2,-0.6,0,0,0,-37.4,50
1528558018677,12.869572004542432,16.086965005678042,-9.572519083969466,2.4656488549618323,3.763358778625954,-0.755126953125,0.607177734375,-0.194091796875,-37.91005077816724,49.83040207072608,0,11.8,12.8,0,-2.2,0.2,-0.6,0,0,0,-37.4,50
1528558018778,12.869572004542432,16.086965005678042,-7.6106870229007635,1.282442748091603,1.7938931297709924,-0.668212890625,0.64404296875,-0.0009765625,-43.944780427717,46.05515608853642,0,11.8,12.8,0,-2.2,0.2,-0.6,0,0,0,-37.2,50.2
1528558018879,12.869572004542432,16.086965005678042,2.450381679389313,-0.9923664122137404,-3.435114503816794,-0.629150390625,0.546142578125,-0.144775390625,-40.229722341446376,48.07470805686248,0,11.8,12.8,0,-2.2,0.2,-0.6,0,0,0,-37.2,50.2
1528558018979,12.869572004542432,16.086965005678042,-6.641221374045801,3.5877862595419847,-2.83206106870229,-0.697998046875,0.618408203125,-0.310546875,-38.98924267086856,45.247116560254796,0,11.8,12.8,0,-2.2,0.2,-0.6,0,0,0,-37.2,50.2
1528558019078,12.869572004542432,16.086965005678042,-3.8244274809160306,-1.366412213740458,-3.5801526717557253,-0.767822265625,0.508544921875,-0.12451171875,-33.17588969262427,55.71054656999167,0,11.8,12.8,0,-2.2,0.2,-0.6,0,0,0,-37.2,50.2
1528558019179,12.869572004542432,16.086965005678042,-5.419847328244275,2.2595419847328246,-2.2748091603053435,-0.75732421875,0.614990234375,-0.119140625,-38.73626301074147,50.403985252224295,0,11.8,12.8,0,-2.2,0.2,-0.6,0,0,0,-37.2,50.2
1528558019279,12.869572004542432,16.086965005678042,3.427480916030534,-1.9923664122137406,-1.3282442748091603,-0.794189453125,0.539794921875,-0.124267578125,-33.881742229979885,55.1058233822782,0,11.8,12.8,0,-2.2,0.2,-0.6,0,0,0,-37.2,50.2
1528558019380,12.869572004542432,16.086965005678042,-6.900763358778626,1.3358778625954197,2.763358778625954,-0.7294921875,0.5986328125,-0.248291015625,-37.84188503072128,48.3820825939724,0,11.8,12.8,0,-2.2,0.2,-0.6,0,0,0,-37.2,50.2
1528558019480,12.869572004542432,16.086965005678042,-5.603053435114504,-1.9083969465648856,-0.22137404580152673,-0.69873046875,0.652099609375,-0.08447265625,-42.81563834997281,46.73920758266329,0,11.8,12.8,0,-2.2,0.2,-0.6,0,0,0,-37.2,50.2
1528558019579,12.869572004542432,16.086965005678042,-2.2519083969465647,0.2900763358778626,-1.2061068702290076,-0.693359375,0.608154296875,-0.135009765625,-40.726578506787824,48.061370935272166,0,11.8,12.8,0,-2.2,0.2,-0.6,0,0,0,-37.2,50.2
1528558019680,12.869572004542432,16.086965005678042,-2,0.46564885496183206,-2.572519083969466,-0.742919921875,0.6455078125,-0.231689453125,-39.674966770970286,47.28827913582892,0,11.8,12.8,0,-2.2,0.2,-0.6,0,0,0,-37.2,50.2
1528558019780,12.869572004542432,16.086965005678042,-2.4122137404580153,-0.1984732824427481,-4.122137404580153,-0.783935546875,0.560546875,-0.226806640625,-34.48409793726905,52.35498778858083,0,12,12.8,0,-2.2,0,-0.6,0,0,0,-37.8,49.8
1528558019880,12.869572004542432,16.086965005678042,-3.7709923664122136,1.3435114503816794,-2.3969465648854964,-0.700927734375,0.56640625,-0.1181640625,-38.54913620939056,50.46106254055466,0,12,12.8,0,-2.2,0,-0.6,0,0,0,-37.8,49.8
1528558019980,12.869572004542432,16.086965005678042,2.435114503816794,-1.6946564885496183,-2.4732824427480917,-0.757568359375,0.553466796875,-0.14990234375,-35.62869673584088,52.87772632786556,0,12,12.8,0,-2.2,0,-0.6,0,0,0,-37.8,49.8
1528558020081,12.869572004542432,16.086965005678042,-5.656488549618321,-0.21374045801526717,3.6946564885496183,-0.734619140625,0.478515625,-0.146484375,-32.5705718780054,55.736662870699966,0,12,12.8,0,-2.2,0,-0.6,0,0,0,-37.8,49.8
1528558020181,12.869572004542432,16.086965005678042,-9.80916030534351,3.1755725190839694,1.549618320610687,-0.6962890625,0.721923828125,-0.186279296875,-45.04557432281267,43.042480331704034,0,12,12.8,0,-2.2,0,-0.6,0,0,0,-37.8,49.8
1528558020281,14.478268505110236,16.086965005678042,-0.5038167938931297,0.22900763358778625,-1.3053435114503817,-0.711181640625,0.64892578125,-0.0595703125,-42.279530683818,47.501035043129946,0,12,12.8,0,-2.2,0,-0.6,0,0,0,-37.8,49.8
1528558020381,14.478268505110236,16.086965005678042,-2.9389312977099236,1.633587786259542,-3.312977099236641,-0.75341796875,0.667724609375,-0.240234375,-40.17691288776198,46.71448069752696,0,12,12.8,0,-2.2,0,-0.6,0,0,0,-37.8,49.8
1528558020480,14.478268505110236,16.086965005678042,-7.66412213740458,2.7557251908396947,-2.618320610687023,-0.6943359375,0.62548828125,-0.06640625,-41.88422800443832,47.826362731057905,0,12,12.8,0,-2.2,0,-0.6,0,0,0,-37.8,49.8
1528558020581,14.478268505110236,16.086965005678042,-3.267175572519084,-0.6030534351145038,-2.4656488549618323,-0.78125,0.598876953125,-0.117431640625,-37.163827940967714,52.004447810443345,0,12,12.8,0,-2.2,0,-0.6,0,0,0,-37.8,49.8
1528558020681,14.478268505110236,16.086965005678042,-1.6793893129770991,-0.6259541984732825,-2.4198473282442747,-0.712890625,0.54736328125,-0.211181640625,-36.3599723059878,50.54656639324295,0,12,12.8,0,-2.2,0,-0.6,0,0,0,-37.8,49.8
1528558020781,14.478268505110236,16.086965005678042,-1.9083969465648856,-1.381679389312977,-1.9389312977099236,-0.8115234375,0.508544921875,-0.304931640625,-30.396305407070567,53.8453414328666,0,12.2,14.4,0,-2.6,0,-0.8,0,0,0,-37.8,49.8
1528558020881,14.478268505110236,16.086965005678042,-7.145038167938932,1.6641221374045803,3.877862595419847,-0.71923828125,0.674560546875,-0.18896484375,-42.211088126478366,45.755019529305265,0,12.2,14.4,0,-2.6,0,-0.8,0,0,0,-37.8,49.8
1528558020981,14.478268505110236,16.086965005678042,-6.778625954198473,0.6412213740458015,0.16793893129770993,-0.732177734375,0.6025390625,-0.017578125,-39.444265074744656,50.535677228495906,0,12.2,14.4,0,-2.6,0,-0.8,0,0,0,-37.8,49.8
1528558021081,14.478268505110236,16.086965005678042,3.267175572519084,0.11450381679389313,-3.2519083969465647,-0.69677734375,0.64453125,-0.156982421875,-42.06304756106646,46.40685260430611,0,12.2,14.4,0,-2.6,0,-0.8,0,0,0,-37.8,49.8
1528558021181,14.478268505110236,16.086965005678042,-4.7251908396946565,1.083969465648855,-3.282442748091603,-0.829345703125,0.614013671875,-0.3212890625,-34.61982794737312,50.11820137900928,0,12.2,14.4,0,-2.6,0,-0.8,0,0,0,-37.8,49.8
1528558021281,14.478268505110236,16.086965005678042,-3.267175572519084,0.5190839694656488,-1.3587786259541985,-0.809326171875,0.59228515625,-0.208251953125,-35.326645974105745,52.1976871157217,0,12.2,14.4,0,-2.6,0,-0.8,0,0,0,-37.8,49.8
1528558021381,14.478268505110236,16.086965005678042,-3.6946564885496183,1.83206106870229,-2.2061068702290076,-0.735595703125,0.5791015625,-0.125732421875,-37.811503239248275,51.145186467637046,0,12.2,14.4,0,-2.6,0,-0.8,0,0,0,-37.8,49.8
1528558021481,14.478268505110236,16.086965005678042,4.366412213740458,-5.320610687022901,-2.7938931297709924,-0.7607421875,0.55078125,-0.165771484375,-35.27577187205863,52.90755748491834,0,12.2,14.4,0,-2.6,0,-0.8,0,0,0,-37.8,49.8
1528558021581,14.478268505110236,16.086965005678042,-2.7557251908396947,-1.5877862595419847,3.1908396946564888,-0.716552734375,0.623291015625,-0.23779296875,-39.54219309581403,47.04644631447883,0,12.2,14.4,0,-2.6,0,-0.8,0,0,0,-37.8,49.8
1528558021681,14.478268505110236,16.086965005678042,-9.007633587786259,2.015267175572519,2.16793893129771,-0.70068359375,0.63818359375,0.036865234375,-42.28788005181872,47.62518450253538,0,12.2,14.4,0,-2.6,0,-0.8,0,0,0,-37.8,49.8
1528558021781,14.478268505110236,16.086965005678042,-0.5954198473282443,0.8091603053435115,-2.9389312977099236,-0.69091796875,0.661865234375,-0.111572265625,-43.40140159407895,45.829210013878445,0,12.6,14.4,0,-3,0,-0.6,0,0,0,-37.6,49.6
1528558021881,14.478268505110236,16.086965005678042,-1.9236641221374047,-0.549618320610687,-5.190839694656488,-0.80419921875,0.644287109375,-0.300048828125,-36.892284817752696,48.53065672128918,0,12.6,14.4,0,-3,0,-0.6,0,0,0,-37.6,49.6
1528558021982,14.478268505110236,16.086965005678042,-5.068702290076335,2.0763358778625953,-1.8396946564885497,-0.822998046875,0.615966796875,-0.162841796875,-36.28642701008084,52.25456227480888,0,12.6,14.4,0,-3,0,-0.6,0,0,0,-37.6,49.6
1528558022082,14.478268505110236,16.086965005678042,-3.267175572519084,1.8931297709923665,-0.8778625954198473,-0.741943359375,0.6318359375,-0.15380859375,-39.8235959379644,48.76656735637239,0,12.6,14.4,0,-3,0,-0.6,0,0,0,-37.6,49.6
1528558022182,14.478268505110236,16.086965005678042,5.480916030534351,-2.1526717557251906,-2.1374045801526718,-0.841064453125,0.5107421875,-0.17236328125,-30.748123726678823,57.34398847279355,0,12.6,14.4,0,-3,0,-0.6,0,0,0,-37.6,49.6
1528558022282,14.478268505110236,16.086965005678042,-5.587786259541985,0.09923664122137404,3.381679389312977,-0.745849609375,0.608642578125,-0.189208984375,-38.34344278627396,49.48408333046766,0,12.6,14.4,0,-3,0,-0.6,0,0,0,-37.6,49.6
1528558022382,14.478268505110236,16.086965005678042,-11.198473282442748,4.793893129770993,2.480916030534351,-0.709228515625,0.603271484375,-0.041015625,-40.33736838822164,49.55021551459085,0,12.6,14.4,0,-3,0,-0.6,0,0,0,-37.6,49.6
1528558022483,14.478268505110236,16.086965005678042,-0.6106870229007634,2.984732824427481,-0.6564885496183206,-0.63916015625,0.67138671875,-0.050048828125,-46.321168678396845,43.51209453507621,0,12.6,14.4,0,-3,0,-0.6,0,0,0,-37.6,49.6
1528558022583,14.478268505110236,16.086965005678042,-0.15267175572519084,1.9083969465648856,-4.717557251908397,-0.72265625,0.67236328125,-0.169189453125,-42.17370924017632,46.186742526681044,0,12.6,14.4,0,-3,0,-0.6,0,0,0,-37.6,49.6
1528558022683,14.478268505110236,16.086965005678042,-1.549618320610687,-0.6717557251908397,-4.282442748091603,-0.771484375,0.49609375,-0.100830078125,-32.522208455031624,56.72769753668076,0,12.6,14.4,0,-3,0,-0.6,0,0,0,-37.6,49.6
1528558022783,16.086965005678042,16.086965005678042,0.45038167938931295,-0.6870229007633588,-1.6106870229007633,-0.7314453125,0.59375,-0.0537109375,-38.992567690231105,50.81777822450877,0,13,14.4,0,-2.8,0.2,-0.6,0,0,0,-37.8,49.2
1528558022883,16.086965005678042,16.086965005678042,0.6106870229007634,-3.435114503816794,-0.4580152671755725,-0.736572265625,0.491455078125,-0.236572265625,-32.42606521745985,53.480110947875765,0,13,14.4,0,-2.8,0.2,-0.6,0,0,0,-37.8,49.2
1528558022983,16.086965005678042,16.086965005678042,-8.16793893129771,2.2213740458015265,0.3282442748091603,-0.7802734375,0.622314453125,-0.125732421875,-38.216973829556714,50.86561626107579,0,13,14.4,0,-2.8,0.2,-0.6,0,0,0,-37.8,49.2
1528558023084,16.086965005678042,16.086965005678042,-2.030534351145038,1.6870229007633588,2.4427480916030535,-0.726806640625,0.6201171875,-0.11669921875,-40.111385908427444,49.035984585215,0,13,14.4,0,-2.8,0.2,-0.6,0,0,0,-37.8,49.2
1528558023185,16.086965005678042,16.086965005678042,-2.816793893129771,2.4198473282442747,-2.236641221374046,-0.68603515625,0.693603515625,-0.180908203125,-44.351413087666366,43.74336081935617,0,13,14.4,0,-2.8,0.2,-0.6,0,0,0,-37.8,49.2
1528558023285,16.086965005678042,16.086965005678042,-0.3511450381679389,0.3893129770992366,-3.9618320610687023,-0.83447265625,0.560791015625,-0.2626953125,-32.660590605054445,53.42054072822547,0,13,14.4,0,-2.8,0.2,-0.6,0,0,0,-37.8,49.2
1528558023385,16.086965005678042,16.086965005678042,-7.793893129770993,3.33587786259542,-2.9618320610687023,-0.75244140625,0.57177734375,-0.05908203125,-37.14627300860638,52.62226443667464,0,13,14.4,0,-2.8,0.2,-0.6,0,0,0,-37.8,49.2
1528558023485,16.086965005678042,16.086965005678042,3.4656488549618323,-2.5343511450381677,-3.5343511450381677,-0.773193359375,0.54052734375,-0.21484375,-33.96282895127112,53.04651730751773,0,13,14.4,0,-2.8,0.2,-0.6,0,0,0,-37.8,49.2
1528558023585,16.086965005678042,16.086965005678042,-2.801526717557252,-1.2595419847328244,1.748091603053435,-0.861572265625,0.503662109375,-0.240478515625,-29.382263086532845,57.06482392362552,0,13,14.4,0,-2.8,0.2,-0.6,0,0,0,-37.8,49.2
1528558023685,16.086965005678042,16.086965005678042,-6.938931297709924,1.4198473282442747,0,-0.734619140625,0.576171875,-0.2158203125,-36.9618704320798,50.0527891033786,0,13,14.4,0,-2.8,0.2,-0.6,0,0,0,-37.8,49.2
1528558023786,16.086965005678042,16.086965005678042,-4.267175572519084,0.9312977099236641,-0.1984732824427481,-0.631591796875,0.685302734375,-0.067626953125,-47.17279297983929,42.52610101657683,0,13.8,16,0,-2.6,0.2,-0.8,0,0,0,-37.6,49.4
1528558023886,16.086965005678042,16.086965005678042,-0.42748091603053434,0.16793893129770993,-4.236641221374046,-0.718505859375,0.6572265625,-0.26708984375,-40.60948023792555,45.36436751749546,0,13.8,16,0,-2.6,0.2,-0.8,0,0,0,-37.6,49.4
1528558023986,16.086965005678042,16.086965005678042,-6.480916030534351,0.5801526717557252,-4.480916030534351,-0.840576171875,0.540283203125,-0.10498046875,-32.52967113920699,56.78424075513075,0,13.8,16,0,-2.6,0.2,-0.8,0,0,0,-37.6,49.4
1528558024087,16.086965005678042,16.086965005678042,-0.9847328244274809,1.2213740458015268,-2.480916030534351,-0.765380859375,0.580322265625,-0.151611328125,-36.6404762724295,51.91554926567142,0,13.8,16,0,-2.6,0.2,-0.8,0,0,0,-37.6,49.4
1528558024187,16.086965005678042,16.086965005678042,-1.7557251908396947,-0.8778625954198473,-1.4274809160305344,-0.814697265625,0.5810546875,-0.235595703125,-34.416706259527274,52.41769143010417,0,13.8,16,0,-2.6,0.2,-0.8,0,0,0,-37.6,49.4
1528558024288,16.086965005678042,16.086965005678042,-4.106870229007634,-0.6870229007633588,2.648854961832061,-0.828125,0.5830078125,-0.1904296875,-34.454139716288914,53.47587154712404,0,13.8,16,0,-2.6,0.2,-0.8,0,0,0,-37.6,49.4
1528558024388,16.086965005678042,16.086965005678042,-7.236641221374046,2.213740458015267,3.2595419847328246,-0.73974609375,0.60107421875,-0.109619140625,-38.79107995354399,50.44523096573119,0,13.8,16,0,-2.6,0.2,-0.8,0,0,0,-37.6,49.4
1528558024489,16.086965005678042,16.086965005678042,-4.4961832061068705,4.175572519083969,-1.786259541984733,-0.74609375,0.760986328125,-0.169677734375,-44.843881838816486,43.73921404910856,0,13.8,16,0,-2.6,0.2,-0.8,0,0,0,-37.6,49.4
1528558024589,16.086965005678042,16.086965005678042,-2.6564885496183206,0.8473282442748091,-4.755725190839694,-0.697509765625,0.664306640625,-0.105712890625,-43.27850820923461,46.03879457346046,0,13.8,16,0,-2.6,0.2,-0.8,0,0,0,-37.6,49.4
1528558024689,16.086965005678042,16.086965005678042,-0.7480916030534351,-1.3206106870229009,-5.862595419847328,-0.766357421875,0.545166015625,-0.12548828125,-35.06976328971692,53.8714646327391,0,13.8,16,0,-2.6,0.2,-0.8,0,0,0,-37.6,49.4
1528558024789,16.086965005678042,16.086965005678042,-2.0381679389312977,1.4122137404580153,-2.946564885496183,-0.694580078125,0.55126953125,-0.108642578125,-38.101373461453434,51.02924774686718,0,14.6,16,0,-2.6,0.2,-0.8,0,0,0,-37.4,49.4
1528558024890,16.086965005678042,16.086965005678042,-0.1984732824427481,-0.15267175572519084,-1.0534351145038168,-0.810302734375,0.547119140625,-0.1904296875,-33.31676206139813,54.437762773225046,0,14.6,16,0,-2.6,0.2,-0.8,0,0,0,-37.4,49.4
1528558024989,16.086965005678042,16.086965005678042,-7.8396946564885495,1.5190839694656488,1.7786259541984732,-0.74365234375,0.64990234375,-0.06103515625,-41.05600437351463,48.72403235435132,0,14.6,16,0,-2.6,0.2,-0.8,0,0,0,-37.4,49.4
1528558025089,16.086965005678042,16.086965005678042,-2.3893129770992365,0.8244274809160306,0.44274809160305345,-0.73828125,0.654052734375,-0.033447265625,-41.50898727414873,48.42471892927165,0,14.6,16,0,-2.6,0.2,-0.8,0,0,0,-37.4,49.4
1528558025189,16.086965005678042,16.086965005678042,-2.984732824427481,2.7557251908396947,-1.7099236641221374,-0.712158203125,0.66748046875,-0.157470703125,-42.46346738905129,46.08000252071329,0,14.6,16,0,-2.6,0.2,-0.8,0,0,0,-37.4,49.4
1528558025289,16.086965005678042,16.086965005678042,-6.0534351145038165,0.9770992366412213,-4.732824427480916,-0.734130859375,0.625,-0.122802734375,-40.01951467406728,49.054280762582,0,14.6,16,0,-2.6,0.2,-0.8,0,0,0,-37.4,49.4
1528558025389,16.086965005678042,16.086965005678042,-2.122137404580153,-0.7099236641221374,-4.083969465648855,-0.753662109375,0.526123046875,-0.13623046875,-34.48736581417139,54.204204101456085,0,14.6,16,0,-2.6,0.2,-0.8,0,0,0,-37.4,49.4
1528558025489,16.086965005678042,16.086965005678042,-0.05343511450381679,2.49618320610687,-1.3511450381679388,-0.7060546875,0.59716796875,-0.13720703125,-39.701154278600036,49.047928595762684,0,14.6,16,0,-2.6,0.2,-0.8,0,0,0,-37.4,49.4
1528558025589,16.086965005678042,16.086965005678042,2.030534351145038,-2.900763358778626,0.04580152671755725,-0.755615234375,0.55419921875,-0.24169921875,-34.937116117041064,51.33466723691924,0,14.6,16,0,-2.6,0.2,-0.8,0,0,0,-37.4,49.4
1528558025690,16.086965005678042,16.086965005678042,-4.259541984732825,1.8549618320610688,2.4580152671755724,-0.737060546875,0.628662109375,-0.167236328125,-39.753313970690215,48.56853668828523,0,14.6,16,0,-2.6,0.2,-0.8,0,0,0,-37.4,49.4
1528558025790,16.086965005678042,16.086965005678042,-7.625954198473282,3.900763358778626,1.2595419847328244,-0.712890625,0.568115234375,-0.0380859375,-38.51217640420365,51.38540807252345,0,15.2,16,0,-2.4,0.2,-0.8,0,0,0,-37.4,49.6
1528558025890,16.086965005678042,16.086965005678042,0.4198473282442748,0.6259541984732825,-3.030534351145038,-0.670654296875,0.724609375,-0.223388671875,-45.70957708468165,41.49155393470375,0,15.2,16,0,-2.4,0.2,-0.8,0,0,0,-37.4,49.6
1528558025992,16.086965005678042,16.086965005678042,-5.358778625954199,0.45038167938931295,-4.106870229007634,-0.773193359375,0.61865234375,-0.143310546875,-38.1930753259471,50.60326689879994,0,15.2,16,0,-2.4,0.2,-0.8,0,0,0,-37.4,49.6
1528558026092,16.086965005678042,16.086965005678042,-3.145038167938931,0.5114503816793893,-2.7557251908396947,-0.764404296875,0.555908203125,-0.09716796875,-35.80812660594123,53.562679210535585,0,15.2,16,0,-2.4,0.2,-0.8,0,0,0,-37.4,49.6
1528558026191,16.086965005678042,16.086965005678042,-5.580152671755725,2.3893129770992365,-3.7709923664122136,-0.78857421875,0.5966796875,-0.058349609375,-37.03796465834415,52.75551804675351,0,15.2,16,0,-2.4,0.2,-0.8,0,0,0,-37.4,49.6
1528558026292,14.478268505110236,0,-1.2061068702290076,-0.08396946564885496,-1.7709923664122138,-0.780517578125,0.572265625,-0.152099609375,-35.74069819038187,52.814508585197395,0,15.2,16,0,-2.4,0.2,-0.8,0,0,0,-37.4,49.6
1528558026392,14.478268505110236,0,-3.351145038167939,-0.31297709923664124,0.4732824427480916,-0.73681640625,0.554443359375,-0.13818359375,-36.486300331215794,52.20629882572427,0,15.2,16,0,-2.4,0.2,-0.8,0,0,0,-37.4,49.6
1528558026491,14.478268505110236,0,-5.67175572519084,0.1984732824427481,2.33587786259542,-0.752197265625,0.62548828125,-0.144287109375,-39.23711513404518,49.52302289391296,0,15.2,16,0,-2.4,0.2,-0.8,0,0,0,-37.4,49.6
1528558026592,14.478268505110236,0,-2.33587786259542,-0.5267175572519084,-0.03816793893129771,-0.662841796875,0.62841796875,-0.0361328125,-43.430468359365186,46.47988029226575,0,15.2,16,0,-2.4,0.2,-0.8,0,0,0,-37.4,49.6
1528558026692,14.478268505110236,0,1.2213740458015268,-0.3893129770992366,-2.6412213740458017,-0.763427734375,0.583251953125,-0.124267578125,-37.01872233620128,52.00521371216878,0,15.2,16,0,-2.4,0.2,-0.8,0,0,0,-37.4,49.6
1528558026792,14.478268505110236,16.086965005678042,-5.229007633587786,3.7480916030534353,-0.6259541984732825,-0.714111328125,0.60009765625,-0.213623046875,-38.83721751303691,48.26706711040028,0,15.4,14.4,0,-2.4,0.2,-1,0,0,0,-37.6,49.8
1528558026892,14.478268505110236,16.086965005678042,-9.648854961832061,4.251908396946565,-3.5114503816793894,-0.743896484375,0.701416015625,-0.080322265625,-43.150737720566966,46.497217562464165,0,15.4,14.4,0,-2.4,0.2,-1,0,0,0,-37.6,49.8
1528558026992,14.478268505110236,16.086965005678042,3.1908396946564888,-3.7786259541984735,-4.8320610687022905,-0.731689453125,0.620849609375,-0.157470703125,-39.67644971229428,48.801644755518126,0,15.4,14.4,0,-2.4,0.2,-1,0,0,0,-37.6,49.8
1528558027092,14.478268505110236,16.086965005678042,-5.595419847328245,1.4351145038167938,-0.4580152671755725,-0.77001953125,0.558837890625,-0.1220703125,-35.63272546602212,53.3929104860612,0,15.4,14.4,0,-2.4,0.2,-1,0,0,0,-37.6,49.8
1528558027192,14.478268505110236,16.086965005678042,-2.7480916030534353,0.3511450381679389,-0.15267175572519084,-0.712158203125,0.598388671875,-0.2021484375,-38.949080631125334,48.43025700464868,0,15.4,14.4,0,-2.4,0.2,-1,0,0,0,-37.6,49.8
1528558027293,14.478268505110236,16.086965005678042,0.22900763358778625,-2.9923664122137406,-0.3816793893129771,-0.767578125,0.5771484375,-0.261474609375,-35.4411888343345,50.46120144759926,0,15.4,14.4,0,-2.4,0.2,-1,0,0,0,-37.6,49.8
1528558027393,14.478268505110236,16.086965005678042,-7.534351145038168,2.801526717557252,1.7938931297709924,-0.743408203125,0.611328125,-0.079833984375,-39.270482563705194,50.33060447963075,0,15.4,14.4,0,-2.4,0.2,-1,0,0,0,-37.6,49.8
1528558027494,14.478268505110236,16.086965005678042,-5.114503816793893,0.5267175572519084,-1.4351145038167938,-0.773193359375,0.671630859375,-0.030029296875,-40.95768714373851,48.992609740386065,0,15.4,14.4,0,-2.4,0.2,-1,0,0,0,-37.6,49.8
1528558027594,14.478268505110236,16.086965005678042,0.8778625954198473,-1.1908396946564885,-2.954198473282443,-0.77197265625,0.590087890625,-0.202880859375,-36.47497237132803,51.05115857989507,0,15.4,14.4,0,-2.4,0.2,-1,0,0,0,-37.6,49.8
1528558027694,14.478268505110236,16.086965005678042,-6.900763358778626,3.50381679389313,-1.1221374045801527,-0.705810546875,0.6240234375,-0.208251953125,-40.297347156497764,47.01403998967943,0,15.4,14.4,0,-2.4,0.2,-1,0,0,0,-37.6,49.8
1528558027794,14.478268505110236,16.086965005678042,-2.2748091603053435,0.9312977099236641,-4.229007633587786,-0.7421875,0.612060546875,-0.125,-39.1186291219198,49.91289789010416,0,15.4,14.4,0,-2.6,0,-1,0,0,0,-37.6,49.8
1528558027894,14.478268505110236,16.086965005678042,-3.8396946564885495,0.3282442748091603,-3.053435114503817,-0.8046875,0.526123046875,-0.120361328125,-32.887896084389304,56.149696594875444,0,15.4,14.4,0,-2.6,0,-1,0,0,0,-37.6,49.8
1528558027994,14.478268505110236,16.086965005678042,-7.145038167938932,2.6412213740458017,0.33587786259541985,-0.7294921875,0.619140625,-0.22607421875,-39.03135306073072,47.90097751874467,0,15.4,14.4,0,-2.6,0,-1,0,0,0,-37.6,49.8
1528558028094,14.478268505110236,16.086965005678042,-0.8702290076335878,-1.251908396946565,-0.6412213740458015,-0.7412109375,0.620361328125,-0.13525390625,-39.46669963352719,49.41605216348867,0,15.4,14.4,0,-2.6,0,-1,0,0,0,-37.6,49.8
1528558028194,14.478268505110236,16.086965005678042,0.04580152671755725,-2.8091603053435112,0.7557251908396947,-0.774169921875,0.533935546875,-0.0634765625,-34.50389605446746,55.21829967905766,0,15.4,14.4,0,-2.6,0,-1,0,0,0,-37.6,49.8
1528558028295,12.869572004542432,0,-7.977099236641221,2.6106870229007635,1.3129770992366412,-0.720947265625,0.6474609375,-0.122314453125,-41.52223414736358,47.5741035196614,0,15.4,14.4,0,-2.6,0,-1,0,0,0,-37.6,49.8
1528558028395,12.869572004542432,0,-2.2977099236641223,0.35877862595419846,-0.8854961832061069,-0.7373046875,0.635498046875,-0.043701171875,-40.70904843426933,49.17442525810371,0,15.4,14.4,0,-2.6,0,-1,0,0,0,-37.6,49.8
1528558028496,12.869572004542432,0,-0.7251908396946565,0.0916030534351145,-2.4198473282442747,-0.7080078125,0.645263671875,-0.13916015625,-41.805280324729516,47.00558068974441,0,15.4,14.4,0,-2.6,0,-1,0,0,0,-37.6,49.8
1528558028596,12.869572004542432,0,-5.5038167938931295,0.8015267175572519,-2.1526717557251906,-0.74169921875,0.596435546875,-0.163818359375,-38.13980816872601,50.174319716430816,0,15.4,14.4,0,-2.6,0,-1,0,0,0,-37.6,49.8
1528558028697,12.869572004542432,0,-5.740458015267175,3.8091603053435112,-3.49618320610687,-0.770263671875,0.6201171875,-0.199462890625,-37.93157815184694,49.77902539214265,0,15.4,14.4,0,-2.6,0,-1,0,0,0,-37.6,49.8
1528558028797,12.869572004542432,16.086965005678042,-0.15267175572519084,-0.09923664122137404,-3.4885496183206106,-0.7646484375,0.573486328125,-0.13671875,-36.4381377106209,52.367118265950374,0,14.8,12.8,0,-2.8,0,-1,0,0,0,-38,49.6
1528558028897,12.869572004542432,16.086965005678042,-5.175572519083969,2.6717557251908395,-0.916030534351145,-0.79443359375,0.56640625,-0.087158203125,-35.32581717787445,54.194811943969746,0,14.8,12.8,0,-2.8,0,-1,0,0,0,-38,49.6
1528558028997,12.869572004542432,16.086965005678042,-3.2442748091603053,-0.09923664122137404,0.4580152671755725,-0.740234375,0.592529296875,-0.159912109375,-38.04008419190631,50.33785785613781,0,14.8,12.8,0,-2.8,0,-1,0,0,0,-38,49.6
1528558029097,12.869572004542432,16.086965005678042,-3.8702290076335877,-0.6412213740458015,2.1908396946564888,-0.767333984375,0.567626953125,-0.14404296875,-36.018657352117806,52.649647688589695,0,14.8,12.8,0,-2.8,0,-1,0,0,0,-38,49.6
1528558029197,12.869572004542432,16.086965005678042,-4.969465648854962,1.4809160305343512,0.6564885496183206,-0.710693359375,0.657958984375,-0.1142578125,-42.42922422501651,46.78198956619431,0,14.8,12.8,0,-2.8,0,-1,0,0,0,-38,49.6
1528558029297,12.869572004542432,16.086965005678042,4.038167938931298,-3.435114503816794,-2.366412213740458,-0.740966796875,0.584228515625,-0.082275390625,-38.08408433205817,51.47151067035678,0,14.8,12.8,0,-2.8,0,-1,0,0,0,-38,49.6
1528558029397,12.869572004542432,16.086965005678042,-2.198473282442748,1.5725190839694656,-0.25190839694656486,-0.764892578125,0.55224609375,-0.226806640625,-34.69105643800886,52.02758761731537,0,14.8,12.8,0,-2.8,0,-1,0,0,0,-38,49.6
1528558029496,12.869572004542432,16.086965005678042,-9.404580152671755,5.244274809160306,-1.0458015267175573,-0.675537109375,0.69921875,-0.199951171875,-44.78412939904057,42.88892336835022,0,14.8,12.8,0,-2.8,0,-1,0,0,0,-38,49.6
1528558029597,12.869572004542432,16.086965005678042,-0.8320610687022901,1.8473282442748091,-6.702290076335878,-0.7197265625,0.653564453125,-0.073486328125,-42.09392013840526,47.57907446261793,0,14.8,12.8,0,-2.8,0,-1,0,0,0,-38,49.6
1528558029698,12.869572004542432,16.086965005678042,-1.0076335877862594,-0.6335877862595419,-2.9389312977099236,-0.782470703125,0.53515625,-0.159423828125,-33.8285302952919,54.48704746098252,0,14.8,12.8,0,-2.8,0,-1,0,0,0,-38,49.6
1528558029799,12.869572004542432,16.086965005678042,-8.488549618320612,4.847328244274809,1.0229007633587786,-0.759521484375,0.571533203125,-0.042724609375,-36.917663571626505,52.962132535361455,0,14,12.8,0,-2.6,0,-1,0,0,0,-38,49.8
1528558029909,12.869572004542432,16.086965005678042,-3.8931297709923665,0.9618320610687023,-1.2366412213740459,-0.756591796875,0.57568359375,-0.179931640625,-36.510518731061275,51.43849046844607,0,14,12.8,0,-2.6,0,-1,0,0,0,-38,49.8
1528558030010,12.869572004542432,16.086965005678042,-2.435114503816794,-1.015267175572519,0.6412213740458015,-0.77490234375,0.56298828125,-0.21728515625,-34.974599530427916,52.08992557996914,0,14,12.8,0,-2.6,0,-1,0,0,0,-38,49.8
1528558030110,12.869572004542432,16.086965005678042,-4.091603053435114,0.2595419847328244,1.717557251908397,-0.708984375,0.6494140625,-0.0693359375,-42.35320509684613,47.34922911568288,0,14,12.8,0,-2.6,0,-1,0,0,0,-38,49.8
1528558030210,11.260875503974628,0,0.08396946564885496,-0.8473282442748091,-2.633587786259542,-0.673828125,0.641357421875,-0.13427734375,-43.02888044920998,45.8002668406293,0,14,12.8,0,-2.6,0,-1,0,0,0,-38,49.8
1528558030310,11.260875503974628,0,5.015267175572519,-2.0076335877862594,-3.351145038167939,-0.830078125,0.591796875,-0.219482421875,-34.576712251164516,52.75086726168446,0,14,12.8,0,-2.6,0,-1,0,0,0,-38,49.8
1528558030415,11.260875503974628,0,-8.526717557251908,5.854961832061068,-0.6793893129770993,-0.716064453125,0.6201171875,-0.244873046875,-39.33183790144831,47.04396257580475,0,14,12.8,0,-2.6,0,-1,0,0,0,-38,49.8
1528558030511,11.260875503974628,0,-5.106870229007634,1.450381679389313,-3.312977099236641,-0.66162109375,0.66552734375,-0.05908203125,-45.054871147899206,44.71891911466252,0,14,12.8,0,-2.6,0,-1,0,0,0,-38,49.8
1528558030611,11.260875503974628,0,-0.04580152671755725,0.5572519083969466,-3.854961832061069,-0.7705078125,0.54345703125,-0.197021484375,-34.34624643347785,53.121180809289115,0,14,12.8,0,-2.6,0,-1,0,0,0,-38,49.8
1528558030711,11.260875503974628,16.086965005678042,-5.916030534351145,3.33587786259542,1.5267175572519085,-0.77734375,0.5361328125,-0.13037109375,-34.22348138644389,54.632979907108286,0,14,12.8,0,-2.6,0,-1,0,0,0,-38,49.8
1528558030812,11.260875503974628,16.086965005678042,-3.2061068702290076,0.9541984732824428,0.22900763358778625,-0.720458984375,0.64404296875,-0.156982421875,-41.13527931854727,47.3826475346917,0,13,11.2,0,-2.8,0.2,-1,0,0,0,-38,49.8
1528558030912,11.260875503974628,16.086965005678042,4.0458015267175576,-4.33587786259542,-0.45038167938931295,-0.7724609375,0.581787109375,-0.173095703125,-36.31345969070412,51.84012988669359,0,13,11.2,0,-2.8,0.2,-1,0,0,0,-38,49.8
1528558031012,11.260875503974628,16.086965005678042,-5.5038167938931295,0.8091603053435115,2.854961832061069,-0.71923828125,0.6259765625,-0.175048828125,-40.21944110273772,47.8951898769611,0,13,11.2,0,-2.8,0.2,-1,0,0,0,-38,49.8
1528558031112,11.260875503974628,16.086965005678042,-2.885496183206107,-0.46564885496183206,-0.42748091603053434,-0.684326171875,0.6650390625,-0.039306640625,-44.1339413153702,45.76896800594455,0,13,11.2,0,-2.8,0.2,-1,0,0,0,-38,49.8
1528558031213,12.869572004542432,16.086965005678042,0.5190839694656488,-0.4732824427480916,-2.1908396946564888,-0.747314453125,0.6298828125,-0.134033203125,-39.67991294309453,49.24744286093758,0,13,11.2,0,-2.8,0.2,-1,0,0,0,-38,49.8
1528558031313,12.869572004542432,16.086965005678042,-8.961832061068701,5.343511450381679,-1.1374045801526718,-0.73583984375,0.57177734375,-0.183349609375,-37.01581549359628,50.78509415685795,0,13,11.2,0,-2.8,0.2,-1,0,0,0,-38,49.8
1528558031413,12.869572004542432,16.086965005678042,-5.206106870229007,2.4885496183206106,-2.885496183206107,-0.7041015625,0.66845703125,-0.105712890625,-43.193626543626934,46.13414409598938,0,13,11.2,0,-2.8,0.2,-1,0,0,0,-38,49.8
1528558031513,12.869572004542432,16.086965005678042,3.549618320610687,-1.7404580152671756,-4.900763358778626,-0.79296875,0.563232421875,-0.15576171875,-34.875131885825816,53.61186404172999,0,13,11.2,0,-2.8,0.2,-1,0,0,0,-38,49.8
1528558031613,12.869572004542432,16.086965005678042,-8.030534351145038,4.206106870229007,-0.5877862595419847,-0.74072265625,0.51953125,-0.15673828125,-34.45753705757577,53.77317602636084,0,13,11.2,0,-2.8,0.2,-1,0,0,0,-38,49.8
1528558031714,12.869572004542432,16.086965005678042,-1,0.09923664122137404,-1.900763358778626,-0.759521484375,0.576171875,-0.087890625,-37.00057797765009,52.49831375679908,0,13,11.2,0,-2.8,0.2,-1,0,0,0,-38,49.8
1528558031814,12.869572004542432,16.086965005678042,2.4198473282442747,-2.900763358778626,-0.3893129770992366,-0.820556640625,0.576171875,-0.24365234375,-33.94543783662566,52.6789969702223,0,12.4,12.8,0,-2.6,0.2,-1,0,0,0,-38,49.6
1528558031914,12.869572004542432,16.086965005678042,-2.0381679389312977,0.030534351145038167,1.8549618320610688,-0.763671875,0.590576171875,-0.1552734375,-37.155994857937074,51.353472889134814,0,12.4,12.8,0,-2.6,0.2,-1,0,0,0,-38,49.6
1528558032015,12.869572004542432,16.086965005678042,-5.465648854961832,0.7938931297709924,0.22900763358778625,-0.683349609375,0.692626953125,-0.121337890625,-44.94167221187889,44.18080807581211,0,12.4,12.8,0,-2.6,0.2,-1,0,0,0,-38,49.6
1528558032115,12.869572004542432,16.086965005678042,0.549618320610687,-0.3053435114503817,-2.946564885496183,-0.7578125,0.593017578125,-0.189208984375,-37.20691408713261,50.600154065055015,0,12.4,12.8,0,-2.6,0.2,-1,0,0,0,-38,49.6
1528558032215,11.260875503974628,0,-2.0839694656488548,1.2595419847328244,-0.6793893129770993,-0.66552734375,0.633056640625,-0.0791015625,-43.36698958283109,46.21069076506393,0,12.4,12.8,0,-2.6,0.2,-1,0,0,0,-38,49.6
1528558032315,11.260875503974628,0,-5.0534351145038165,2.030534351145038,-3.2519083969465647,-0.738525390625,0.607666015625,-0.17041015625,-38.72065791604121,49.4843942732178,0,12.4,12.8,0,-2.6,0.2,-1,0,0,0,-38,49.6
1528558032415,11.260875503974628,0,-1.7251908396946565,-0.5954198473282443,-3.9923664122137406,-0.7763671875,0.552978515625,-0.1259765625,-35.109845321694266,53.85136978043396,0,12.4,12.8,0,-2.6,0.2,-1,0,0,0,-38,49.6
1528558032514,11.260875503974628,0,-2.595419847328244,0.16030534351145037,-1.3129770992366412,-0.78662109375,0.5341796875,-0.183349609375,-33.47880422351612,54.32280957069305,0,12.4,12.8,0,-2.6,0.2,-1,0,0,0,-38,49.6
1528558032615,11.260875503974628,0,-10.511450381679388,5.076335877862595,0.16793893129770993,-0.72900390625,0.616943359375,-0.14306640625,-39.70766539701211,49.01786872884819,0,12.4,12.8,0,-2.6,0.2,-1,0,0,0,-38,49.6
1528558032714,11.260875503974628,16.086965005678042,1.3053435114503817,-1.3740458015267176,-0.04580152671755725,-0.7197265625,0.607421875,-0.223388671875,-38.86985069132979,48.0372950804016,0,12.4,12.8,0,-2.6,0.2,-1,0,0,0,-38,49.6
1528558032815,11.260875503974628,16.086965005678042,1.0534351145038168,-2.3435114503816794,0.11450381679389313,-0.770751953125,0.544189453125,-0.15869140625,-34.66557992424193,53.66709050941838,0,11.8,11.2,0,-2.4,0.2,-1,0,0,0,-38,49.6
1528558032915,11.260875503974628,16.086965005678042,-6.145038167938932,0.2748091603053435,2.877862595419847,-0.771240234375,0.5791015625,-0.107666015625,-36.63667279411165,52.62966909482101,0,11.8,11.2,0,-2.4,0.2,-1,0,0,0,-38,49.6
1528558033015,11.260875503974628,16.086965005678042,-4.015267175572519,1.1297709923664123,-0.3893129770992366,-0.671875,0.726318359375,-0.0888671875,-46.98212304810745,42.55798667244974,0,11.8,11.2,0,-2.4,0.2,-1,0,0,0,-38,49.6
1528558033115,11.260875503974628,16.086965005678042,0.7862595419847328,-1.0305343511450382,-3.2519083969465647,-0.80224609375,0.6162109375,-0.13037109375,-37.16799708550833,51.86419692246432,0,11.8,11.2,0,-2.4,0.2,-1,0,0,0,-38,49.6
1528558033215,12.869572004542432,16.086965005678042,-5.038167938931298,0.06870229007633588,-1.0610687022900764,-0.748046875,0.54931640625,-0.18994140625,-35.44128744187776,52.1529935747759,0,11.8,11.2,0,-2.4,0.2,-1,0,0,0,-38,49.6
1528558033314,12.869572004542432,16.086965005678042,-6.740458015267175,4.083969465648855,-1.618320610687023,-0.739501953125,0.592041015625,-0.243408203125,-37.25150156442776,49.119996319605804,0,11.8,11.2,0,-2.4,0.2,-1,0,0,0,-38,49.6
1528558033415,12.869572004542432,16.086965005678042,-0.8015267175572519,0.9847328244274809,-4.526717557251908,-0.723876953125,0.62548828125,-0.1083984375,-40.51563530982976,48.750510750137515,0,11.8,11.2,0,-2.4,0.2,-1,0,0,0,-38,49.6
1528558033515,12.869572004542432,16.086965005678042,1.5572519083969465,-1.2671755725190839,-2.7557251908396947,-0.769287109375,0.501708984375,-0.22998046875,-31.999167009568904,54.343267928753015,0,11.8,11.2,0,-2.4,0.2,-1,0,0,0,-38,49.6
1528558033615,12.869572004542432,16.086965005678042,-5.343511450381679,1.7251908396946565,0.9312977099236641,-0.7666015625,0.580322265625,-0.09326171875,-36.92361239264853,52.521912877208564,0,11.8,11.2,0,-2.4,0.2,-1,0,0,0,-38,49.6
1528558033714,11.260875503974628,0,-0.022900763358778626,1.7251908396946565,-1.5038167938931297,-0.679443359375,0.630126953125,-0.1220703125,-42.38987635822402,46.63009341305284,0,11.8,11.2,0,-2.4,0.2,-1,0,0,0,-38,49.6
1528558033815,11.260875503974628,0,-2.2977099236641223,-0.3816793893129771,-2.236641221374046,-0.79931640625,0.57275390625,-0.134033203125,-35.2483961520267,53.650143791811736,0,11.6,12.4,0,-2.2,0.2,-1,0,0,0,-37.8,49.6
1528558033915,11.260875503974628,0,-4.282442748091603,0.7099236641221374,1.6793893129770991,-0.77587890625,0.5283203125,-0.157470703125,-33.71620867204669,54.604887638959944,0,11.6,12.4,0,-2.2,0.2,-1,0,0,0,-37.8,49.6
1528558034015,11.260875503974628,0,-6.038167938931298,1.1450381679389312,0.8778625954198473,-0.70556640625,0.6552734375,-0.1611328125,-42.15798140921657,46.2770808647907,0,11.6,12.4,0,-2.2,0.2,-1,0,0,0,-37.8,49.6
1528558034115,11.260875503974628,0,2.732824427480916,-3.045801526717557,-3.480916030534351,-0.71142578125,0.644287109375,-0.0771484375,-41.99827623690218,47.63213673989516,0,11.6,12.4,0,-2.2,0.2,-1,0,0,0,-37.8,49.6
1528558034215,11.260875503974628,16.086965005678042,0.46564885496183206,-0.7404580152671756,-3.045801526717557,-0.778076171875,0.531005859375,-0.139892578125,-33.888862287619,54.78762936056184,0,11.6,12.4,0,-2.2,0.2,-1,0,0,0,-37.8,49.6
1528558034315,11.260875503974628,16.086965005678042,-10.221374045801527,5.4961832061068705,-0.48854961832061067,-0.73388671875,0.621337890625,-0.1875,-39.36172525300165,48.51207934921891,0,11.6,12.4,0,-2.2,0.2,-1,0,0,0,-37.8,49.6
1528558034415,11.260875503974628,16.086965005678042,-4.557251908396947,1.5648854961832062,-4.412213740458015,-0.679931640625,0.724365234375,-0.06884765625,-46.666455586935434,43.059159122058354,0,11.6,12.4,0,-2.2,0.2,-1,0,0,0,-37.8,49.6
1528558034514,11.260875503974628,16.086965005678042,0.5114503816793893,-1.4809160305343512,-3.3435114503816794,-0.848876953125,0.492919921875,-0.246826171875,-29.143189082265977,57.00009688805114,0,11.6,12.4,0,-2.2,0.2,-1,0,0,0,-37.8,49.6
1528558034615,11.260875503974628,16.086965005678042,-8.51908396946565,4.404580152671755,1.099236641221374,-0.76123046875,0.527587890625,-0.119140625,-34.4008747339438,54.605274267169875,0,11.6,12.4,0,-2.2,0.2,-1,0,0,0,-37.8,49.6
1528558034715,11.260875503974628,16.086965005678042,-7.175572519083969,3.0916030534351147,-0.35877862595419846,-0.650390625,0.638916015625,-0.1171875,-44.03261137087663,45.035985725651514,0,11.6,12.4,0,-2.2,0.2,-1,0,0,0,-37.8,49.6
1528558034815,11.260875503974628,16.086965005678042,5.022900763358779,-3.9160305343511452,-2.564885496183206,-0.746826171875,0.5849609375,-0.19189453125,-37.18468413346647,50.50018027970059,0,11.4,11,0,-2.4,0.4,-1,0,0,0,-37.8,49.6
1528558034914,11.260875503974628,16.086965005678042,-1.8549618320610688,-3.7022900763358777,2.7557251908396947,-0.86181640625,0.503662109375,-0.2109375,-29.58197643282887,57.641524427687735,0,11.4,11,0,-2.4,0.4,-1,0,0,0,-37.8,49.6
1528558035015,11.260875503974628,16.086965005678042,-10.625954198473282,4.6106870229007635,4.114503816793893,-0.641845703125,0.6962890625,-0.09912109375,-46.993211518625884,42.38384297727816,0,11.4,11,0,-2.4,0.4,-1,0,0,0,-37.8,49.6
1528558035115,11.260875503974628,16.086965005678042,-0.08396946564885496,0.9312977099236641,-1.9465648854961832,-0.619384765625,0.63525390625,-0.147216796875,-44.937567464033194,43.526582195092644,0,11.4,11,0,-2.4,0.4,-1,0,0,0,-37.8,49.6
1528558035215,12.869572004542432,16.086965005678042,1.1755725190839694,-1.8778625954198473,-3.2290076335877864,-0.787353515625,0.62841796875,-0.212646484375,-37.61540505472496,49.88263416977566,0,11.4,11,0,-2.4,0.4,-1,0,0,0,-37.8,49.6
1528558035315,12.869572004542432,16.086965005678042,-10.885496183206106,6.396946564885496,-3.4580152671755724,-0.695556640625,0.640625,-0.059326171875,-42.54238191859327,47.232229204531635,0,11.4,11,0,-2.4,0.4,-1,0,0,0,-37.8,49.6
1528558035416,12.869572004542432,16.086965005678042,4.1603053435114505,-3.6030534351145036,-5.015267175572519,-0.7802734375,0.4677734375,-0.195068359375,-30.18227504720353,56.994748442713686,0,11.4,11,0,-2.4,0.4,-1,0,0,0,-37.8,49.6
1528558035516,12.869572004542432,16.086965005678042,-3.9083969465648853,1.6793893129770991,0.17557251908396945,-0.78369140625,0.50390625,-0.188720703125,-32.01036269418846,55.526312907523604,0,11.4,11,0,-2.4,0.4,-1,0,0,0,-37.8,49.6
1528558035616,12.869572004542432,16.086965005678042,3.068702290076336,-3.66412213740458,-0.5877862595419847,-0.712646484375,0.565673828125,-0.089111328125,-38.225074567619174,51.2162527989163,0,11.4,11,0,-2.4,0.4,-1,0,0,0,-37.8,49.6
1528558035716,12.869572004542432,16.086965005678042,-1.3511450381679388,-1.6412213740458015,0.40458015267175573,-0.783447265625,0.59130859375,-0.2041015625,-36.143425462101185,51.39443171870979,0,11.4,11,0,-2.4,0.4,-1,0,0,0,-37.8,49.6
1528558035816,12.869572004542432,16.086965005678042,-4.564885496183206,0.8702290076335878,2.49618320610687,-0.742431640625,0.681884765625,-0.129150390625,-42.14065662960863,46.9307730992955,0,11.6,12.6,0,-2,0.2,-0.8,0,0,0,-37.6,49.6
1528558035916,12.869572004542432,16.086965005678042,-4.778625954198473,1.1755725190839694,-0.7938931297709924,-0.70751953125,0.608154296875,-0.112060546875,-40.330445942682374,48.84560625924081,0,11.6,12.6,0,-2,0.2,-0.8,0,0,0,-37.6,49.6
1528558036017,12.869572004542432,16.086965005678042,2.2595419847328246,-3.1068702290076335,-1.0610687022900764,-0.721923828125,0.568115234375,-0.1650390625,-37.49378940049378,50.66607810397183,0,11.6,12.6,0,-2,0.2,-0.8,0,0,0,-37.6,49.6
1528558036117,12.869572004542432,16.086965005678042,-5.67175572519084,3.5419847328244276,-2.50381679389313,-0.6884765625,0.6796875,-0.311279296875,-41.97335413715222,42.64337355365151,0,11.6,12.6,0,-2,0.2,-0.8,0,0,0,-37.6,49.6
1528558036217,11.260875503974628,0,-1.1526717557251909,-2.4656488549618323,-3.984732824427481,-0.699951171875,0.606201171875,-0.115966796875,-40.51107086004021,48.595219039619636,0,11.6,12.6,0,-2,0.2,-0.8,0,0,0,-37.6,49.6
1528558036318,11.260875503974628,0,-4.885496183206107,5.427480916030534,-4.396946564885496,-0.896728515625,0.642578125,-0.30419921875,-34.160716021708545,51.59186000230393,0,11.6,12.6,0,-2,0.2,-0.8,0,0,0,-37.6,49.6
1528558036418,11.260875503974628,0,-7.343511450381679,1.2442748091603053,1.3893129770992367,-0.759765625,0.51123046875,-0.122802734375,-33.5944277819242,55.31599822303095,0,11.6,12.6,0,-2,0.2,-0.8,0,0,0,-37.6,49.6
1528558036518,11.260875503974628,0,-6.099236641221374,4.526717557251908,-2.267175572519084,-0.713134765625,0.655029296875,-0.151611328125,-41.937840233355,46.68630213364018,0,11.6,12.6,0,-2,0.2,-0.8,0,0,0,-37.6,49.6
1528558036618,11.260875503974628,0,7.564885496183206,-7.129770992366412,-0.8778625954198473,-0.810546875,0.56787109375,-0.314453125,-33.151415335000614,51.31073432674347,0,11.6,12.6,0,-2,0.2,-0.8,0,0,0,-37.6,49.6
1528558036719,11.260875503974628,16.086965005678042,-2.1908396946564888,0.8854961832061069,0.183206106870229,-0.7470703125,0.5302734375,-0.171630859375,-34.67480988565687,53.2749542142757,0,11.6,12.6,0,-2,0.2,-0.8,0,0,0,-37.6,49.6
1528558036819,11.260875503974628,16.086965005678042,-2.236641221374046,0.549618320610687,1.4961832061068703,-0.66845703125,0.643310546875,-0.05517578125,-43.80459606831699,45.99330656552775,0,11.4,11,0,-2,0.2,-0.8,0,0,0,-37.4,49.6
1528558036919,11.260875503974628,16.086965005678042,0.5267175572519084,1.816793893129771,-4.351145038167939,-0.731689453125,0.686767578125,-0.15185546875,-42.58367206559117,46.13109386930987,0,11.4,11,0,-2,0.2,-0.8,0,0,0,-37.4,49.6
1528558037020,11.260875503974628,16.086965005678042,-3.9083969465648853,-1.6793893129770991,-2.381679389312977,-0.8408203125,0.559326171875,-0.194091796875,-32.950096425704636,54.849552681667305,0,11.4,11,0,-2,0.2,-0.8,0,0,0,-37.4,49.6
1528558037120,11.260875503974628,16.086965005678042,-7.694656488549619,5.412213740458015,-2.969465648854962,-0.742431640625,0.653076171875,-0.120849609375,-40.96510244495028,48.184865456875436,0,11.4,11,0,-2,0.2,-0.8,0,0,0,-37.4,49.6
1528558037220,12.869572004542432,16.086965005678042,-4.091603053435114,2.404580152671756,-5.763358778625954,-0.791748046875,0.51416015625,-0.108154296875,-32.75817259851527,56.43133444026105,0,11.4,11,0,-2,0.2,-0.8,0,0,0,-37.4,49.6
1528558037321,12.869572004542432,16.086965005678042,0.6641221374045801,-5.511450381679389,-0.7175572519083969,-0.74462890625,0.533447265625,-0.017578125,-35.6100078439181,54.36771662809301,0,11.4,11,0,-2,0.2,-0.8,0,0,0,-37.4,49.6
1528558037421,12.869572004542432,16.086965005678042,-9.51908396946565,4.305343511450381,-0.6030534351145038,-0.69287109375,0.61865234375,-0.067626953125,-41.626194123570336,48.06978046488217,0,11.4,11,0,-2,0.2,-0.8,0,0,0,-37.4,49.6
1528558037521,12.869572004542432,16.086965005678042,0.37404580152671757,-2.236641221374046,-1.3053435114503817,-0.78955078125,0.573974609375,-0.169189453125,-35.40623024238905,52.841946088797656,0,11.4,11,0,-2,0.2,-0.8,0,0,0,-37.4,49.6
1528558037621,12.869572004542432,16.086965005678042,-3.7404580152671754,-0.6946564885496184,0.05343511450381679,-0.755859375,0.524658203125,-0.203369140625,-33.833308939332646,53.33439820187083,0,11.4,11,0,-2,0.2,-0.8,0,0,0,-37.4,49.6
1528558037721,12.869572004542432,16.086965005678042,-9.32824427480916,2.6106870229007635,1.6106870229007633,-0.68212890625,0.720947265625,-0.1845703125,-45.57345413729548,42.50823388336749,0,11.4,11,0,-2,0.2,-0.8,0,0,0,-37.4,49.6
1528558037821,12.869572004542432,16.086965005678042,5.8396946564885495,-3.427480916030534,-3.0076335877862594,-0.733154296875,0.627197265625,-0.08349609375,-40.36398610084055,49.20498098824591,0,11.6,12.6,0,-2.2,0.2,-0.8,0,0,0,-37.4,49.8
1528558037921,12.869572004542432,16.086965005678042,-1.183206106870229,0.40458015267175573,-1.6946564885496183,-0.80712890625,0.553466796875,-0.177001953125,-33.81441245405453,54.24853278309691,0,11.6,12.6,0,-2.2,0.2,-0.8,0,0,0,-37.4,49.8
1528558038021,12.869572004542432,16.086965005678042,-12.748091603053435,6.351145038167939,-2.549618320610687,-0.685546875,0.696044921875,-0.178955078125,-44.49115606227952,43.64827133996721,0,11.6,12.6,0,-2.2,0.2,-0.8,0,0,0,-37.4,49.8
1528558038121,12.869572004542432,16.086965005678042,2.3435114503816794,-3.8702290076335877,-4.435114503816794,-0.836181640625,0.59765625,-0.166748046875,-35.02827630660471,53.42302877352386,0,11.6,12.6,0,-2.2,0.2,-0.8,0,0,0,-37.4,49.8
1528558038220,12.869572004542432,16.086965005678042,-1.4961832061068703,-0.3816793893129771,-0.7786259541984732,-0.711669921875,0.535888671875,-0.103271484375,-36.69335598550447,52.51696996731995,0,11.6,12.6,0,-2.2,0.2,-0.8,0,0,0,-37.4,49.8
1528558038321,12.869572004542432,16.086965005678042,-6.786259541984733,3.0229007633587788,0.15267175572519084,-0.676513671875,0.63720703125,-0.009521484375,-43.283384419681624,46.71059138462005,0,11.6,12.6,0,-2.2,0.2,-0.8,0,0,0,-37.4,49.8
1528558038421,12.869572004542432,16.086965005678042,0.816793893129771,-1.8091603053435115,-1.099236641221374,-0.8115234375,0.497802734375,-0.21142578125,-30.6934827992163,56.318494274721246,0,11.6,12.6,0,-2.2,0.2,-0.8,0,0,0,-37.4,49.8
1528558038521,12.869572004542432,16.086965005678042,-6.366412213740458,1.8625954198473282,2.854961832061069,-0.715576171875,0.54931640625,-0.160400390625,-36.83570620674803,51.35020432090279,0,11.6,12.6,0,-2.2,0.2,-0.8,0,0,0,-37.4,49.8
1528558038621,12.869572004542432,16.086965005678042,-6.3816793893129775,1.5190839694656488,-0.26717557251908397,-0.675048828125,0.654052734375,-0.010498046875,-44.091499840229574,45.90135013620608,0,11.6,12.6,0,-2.2,0.2,-0.8,0,0,0,-37.4,49.8
1528558038721,14.478268505110236,16.086965005678042,2.564885496183206,-3.2748091603053435,-3.6106870229007635,-0.7734375,0.576904296875,-0.168212890625,-36.086730613788916,52.15432689050695,0,11.6,12.6,0,-2.2,0.2,-0.8,0,0,0,-37.4,49.8
1528558038821,14.478268505110236,16.086965005678042,-3.6793893129770994,2.4732824427480917,-1.1068702290076335,-0.68896484375,0.632568359375,-0.1171875,-42.1495997642114,46.96170028326383,0,11.8,13,0,-2.2,0.2,-0.8,0,0,0,-37.6,49.8
1528558038921,14.478268505110236,16.086965005678042,-5.969465648854962,3.045801526717557,-4.236641221374046,-0.748046875,0.692626953125,-0.257568359375,-41.20118886861121,45.349815311236526,0,11.8,13,0,-2.2,0.2,-0.8,0,0,0,-37.6,49.8
1528558039021,14.478268505110236,16.086965005678042,-1.1755725190839694,-1.4045801526717556,-4.435114503816794,-0.81591796875,0.556884765625,-0.192626953125,-33.59467619812914,54.16305842279111,0,11.8,13,0,-2.2,0.2,-0.8,0,0,0,-37.6,49.8
1528558039122,14.478268505110236,16.086965005678042,-2.801526717557252,-1.8549618320610688,-0.7022900763358778,-0.744873046875,0.603759765625,-0.155517578125,-38.43006439141948,50.070277255239674,0,11.8,13,0,-2.2,0.2,-0.8,0,0,0,-37.6,49.8
1528558039222,14.478268505110236,16.086965005678042,0.46564885496183206,-0.4732824427480916,-1.0610687022900764,-0.74853515625,0.505126953125,-0.139404296875,-33.560844122327644,55.00614624298253,0,11.8,13,0,-2.2,0.2,-0.8,0,0,0,-37.6,49.8
1528558039322,14.478268505110236,16.086965005678042,-1.1450381679389312,-2.198473282442748,2.519083969465649,-0.7861328125,0.595458984375,-0.184326171875,-36.40703390287646,51.58860393853983,0,11.8,13,0,-2.2,0.2,-0.8,0,0,0,-37.6,49.8
1528558039422,14.478268505110236,16.086965005678042,-6.541984732824427,2.877862595419847,3.351145038167939,-0.689697265625,0.6982421875,-0.120849609375,-44.9195844588921,44.22456430737752,0,11.8,13,0,-2.2,0.2,-0.8,0,0,0,-37.6,49.8
1528558039522,14.478268505110236,16.086965005678042,-1.5648854961832062,-3.877862595419847,-2.816793893129771,-0.720458984375,0.60009765625,-0.06884765625,-39.66418810652473,50.02347124838566,0,11.8,13,0,-2.2,0.2,-0.8,0,0,0,-37.6,49.8
1528558039623,14.478268505110236,16.086965005678042,3.183206106870229,-1.8931297709923665,-2.6564885496183206,-0.773193359375,0.58349609375,-0.21630859375,-36.0078992391363,51.17136752778295,0,11.8,13,0,-2.2,0.2,-0.8,0,0,0,-37.6,49.8
1528558039723,14.478268505110236,16.086965005678042,-9.145038167938932,3.648854961832061,-3.8702290076335877,-0.828125,0.6240234375,-0.20849609375,-36.15686343312803,51.533379378590425,0,11.8,13,0,-2.2,0.2,-0.8,0,0,0,-37.6,49.8
1528558039823,14.478268505110236,16.086965005678042,-2.3206106870229006,3.717557251908397,-5.396946564885496,-0.70361328125,0.674560546875,-0.060791015625,-43.685926094320045,46.091881807753396,0,12.4,14.4,0,-2,0,-0.8,0,0,0,-37.6,49.8
1528558039923,14.478268505110236,16.086965005678042,1.9312977099236641,-0.4580152671755725,-2.427480916030534,-0.777587890625,0.46044921875,-0.178466796875,-29.99117134154184,57.58143610591628,0,12.4,14.4,0,-2,0,-0.8,0,0,0,-37.6,49.8
1528558040024,14.478268505110236,16.086965005678042,-5.679389312977099,1.2900763358778626,-1.4351145038167938,-0.69921875,0.619384765625,-0.284423828125,-39.37012508907237,45.73239495149496,0,12.4,14.4,0,-2,0,-0.8,0,0,0,-37.6,49.8
1528558040124,14.478268505110236,16.086965005678042,-0.42748091603053434,-2,1.16793893129771,-0.795654296875,0.47509765625,-0.20361328125,-30.048282388975842,56.99053406614421,0,12.4,14.4,0,-2,0,-0.8,0,0,0,-37.6,49.8
1528558040224,14.478268505110236,16.086965005678042,-7.465648854961832,0.9083969465648855,5.229007633587786,-0.748779296875,0.5634765625,-0.077392578125,-36.81629428033407,52.77999464624566,0,12.4,14.4,0,-2,0,-0.8,0,0,0,-37.6,49.8
1528558040328,14.478268505110236,16.086965005678042,-4.267175572519084,-1.748091603053435,-1.9389312977099236,-0.61767578125,0.638671875,0.0615234375,-45.81609731139002,43.9103396465857,0,12.4,14.4,0,-2,0,-0.8,0,0,0,-37.6,49.8
1528558040428,14.478268505110236,16.086965005678042,2.114503816793893,-1.366412213740458,-3.267175572519084,-0.713134765625,0.58251953125,-0.068115234375,-39.11603476688234,50.565813873860805,0,12.4,14.4,0,-2,0,-0.8,0,0,0,-37.6,49.8
1528558040528,14.478268505110236,16.086965005678042,-5.526717557251908,4.175572519083969,-3.2519083969465647,-0.77392578125,0.628662109375,-0.25,-37.70310600512289,48.840833219735075,0,12.4,14.4,0,-2,0,-0.8,0,0,0,-37.6,49.8
1528558040628,14.478268505110236,16.086965005678042,-5.3893129770992365,0.7938931297709924,-6.213740458015267,-0.7705078125,0.553466796875,-0.161376953125,-35.109502872278675,53.19522362173553,0,12.4,14.4,0,-2,0,-0.8,0,0,0,-37.6,49.8
1528558040728,16.086965005678042,32.173930011356084,-1.7709923664122138,1.7709923664122138,-2.6106870229007635,-0.791748046875,0.492431640625,-0.212646484375,-30.991881176038035,55.883631008675934,0,12.4,14.4,0,-2,0,-0.8,0,0,0,-37.6,49.8
1528558040828,16.086965005678042,32.173930011356084,-8.618320610687023,4.3816793893129775,-0.03816793893129771,-0.764892578125,0.694580078125,-0.088134765625,-42.05382506422632,47.53036926099908,0,12.8,14.6,0,-2.2,0,-1.2,0,0,0,-37.4,50
1528558040928,16.086965005678042,32.173930011356084,0.17557251908396945,-0.6259541984732825,-0.9236641221374046,-0.779296875,0.529541015625,-0.178466796875,-33.51906496893974,54.357044746270795,0,12.8,14.6,0,-2.2,0,-1.2,0,0,0,-37.4,50
1528558041027,16.086965005678042,32.173930011356084,-2.9160305343511452,-3.564885496183206,2.0076335877862594,-0.795166015625,0.536376953125,-0.162109375,-33.46277314094675,54.828349335693666,0,12.8,14.6,0,-2.2,0,-1.2,0,0,0,-37.4,50
1528558041128,16.086965005678042,32.173930011356084,-7.259541984732825,1.3740458015267176,0.7709923664122137,-0.650390625,0.728759765625,-0.10107421875,-47.91244493321444,41.47669978051629,0,12.8,14.6,0,-2.2,0,-1.2,0,0,0,-37.4,50
1528558041228,17.695661506245845,16.086965005678042,2,-2.931297709923664,-4.625954198473282,-0.77685546875,0.54248046875,-0.176513671875,-34.25277140900043,53.70870591808104,0,12.8,14.6,0,-2.2,0,-1.2,0,0,0,-37.4,50
1528558041328,17.695661506245845,16.086965005678042,-7.3893129770992365,2.1526717557251906,-1.6564885496183206,-0.7861328125,0.60400390625,-0.25634765625,-36.14691734263088,50.149687576064785,0,12.8,14.6,0,-2.2,0,-1.2,0,0,0,-37.4,50
1528558041429,17.695661506245845,16.086965005678042,-8.709923664122137,4.320610687022901,-4.786259541984733,-0.646240234375,0.661376953125,-0.109375,-45.25872877044826,43.950479231635484,0,12.8,14.6,0,-2.2,0,-1.2,0,0,0,-37.4,50
1528558041529,17.695661506245845,16.086965005678042,4.709923664122138,-4.099236641221374,-4.366412213740458,-0.841064453125,0.47998046875,-0.229248046875,-28.836987641372495,57.6893746089323,0,12.8,14.6,0,-2.2,0,-1.2,0,0,0,-37.4,50
1528558041628,17.695661506245845,16.086965005678042,-5.961832061068702,3.984732824427481,0.37404580152671757,-0.7265625,0.563720703125,-0.106689453125,-37.511347481466366,51.703721182761086,0,12.8,14.6,0,-2.2,0,-1.2,0,0,0,-37.4,50
1528558041729,17.695661506245845,16.086965005678042,-1.8549618320610688,-1.5267175572519085,-0.9618320610687023,-0.79345703125,0.594482421875,-0.115234375,-36.55516857123969,52.6499689596529,0,12.8,14.6,0,-2.2,0,-1.2,0,0,0,-37.4,50
1528558041830,17.695661506245845,16.086965005678042,3.3969465648854964,-4.412213740458015,1.366412213740458,-0.824462890625,0.47900390625,-0.15185546875,-29.74269294569848,58.638277659362174,0,14,17.4,0,-2.4,0,-1.2,0,0,0,-37.4,50.2
1528558041930,17.695661506245845,16.086965005678042,-5.67175572519084,0.3816793893129771,1.6641221374045803,-0.6494140625,0.609375,-0.053466796875,-43.08161363989143,46.712187312822536,0,14,17.4,0,-2.4,0,-1.2,0,0,0,-37.4,50.2
1528558042029,17.695661506245845,16.086965005678042,-3.4732824427480917,1.183206106870229,-1.465648854961832,-0.714599609375,0.60498046875,-0.0693359375,-40.11894375425926,49.56426988856042,0,14,17.4,0,-2.4,0,-1.2,0,0,0,-37.4,50.2
1528558042130,17.695661506245845,16.086965005678042,-2.954198473282443,2.4580152671755724,-2.1908396946564888,-0.684814453125,0.547607421875,-0.0908203125,-38.40396066883879,50.97293771493428,0,14,17.4,0,-2.4,0,-1.2,0,0,0,-37.4,50.2
1528558042231,17.695661506245845,16.086965005678042,-5.404580152671755,2.519083969465649,-5.396946564885496,-0.769287109375,0.61767578125,-0.11669921875,-38.4438701150401,50.74690295895941,0,14,17.4,0,-2.4,0,-1.2,0,0,0,-37.4,50.2
1528558042331,17.695661506245845,16.086965005678042,1.6641221374045803,-0.22900763358778625,-4.9541984732824424,-0.812744140625,0.54541015625,-0.196044921875,-33.11890961059264,54.50705172671346,0,14,17.4,0,-2.4,0,-1.2,0,0,0,-37.4,50.2
1528558042431,17.695661506245845,16.086965005678042,-5.656488549618321,0.35877862595419846,2.49618320610687,-0.7666015625,0.543212890625,-0.109619140625,-35.04825981405173,54.13748635104032,0,14,17.4,0,-2.4,0,-1.2,0,0,0,-37.4,50.2
1528558042531,17.695661506245845,16.086965005678042,-7.923664122137405,0.19083969465648856,0.25190839694656486,-0.73828125,0.582275390625,-0.142578125,-37.75355569585177,50.92372773095781,0,14,17.4,0,-2.4,0,-1.2,0,0,0,-37.4,50.2
1528558042632,17.695661506245845,16.086965005678042,4.282442748091603,-5.679389312977099,1.1603053435114503,-0.8544921875,0.6181640625,-0.222412109375,-34.995931273601116,52.44588420460021,0,14,17.4,0,-2.4,0,-1.2,0,0,0,-37.4,50.2
1528558042732,17.695661506245845,16.086965005678042,-5.526717557251908,0.3893129770992366,3.16793893129771,-0.717529296875,0.642578125,-0.159423828125,-41.16074008151381,47.30248480352197,0,14,17.4,0,-2.4,0,-1.2,0,0,0,-37.4,50.2
1528558042832,17.695661506245845,16.086965005678042,-3.877862595419847,-0.549618320610687,-1.3893129770992367,-0.6943359375,0.6767578125,-0.0986328125,-43.97944662119781,45.433515458853364,0,15,17.4,0,-2.2,0,-1,0,0,0,-37.2,50.4
1528558042932,17.695661506245845,16.086965005678042,-0.5877862595419847,0.11450381679389313,-3.49618320610687,-0.79052734375,0.56787109375,-0.19873046875,-34.86370297050379,52.72660416915227,0,15,17.4,0,-2.2,0,-1,0,0,0,-37.2,50.4
1528558043033,17.695661506245845,16.086965005678042,-7.709923664122138,2.351145038167939,-2.015267175572519,-0.62841796875,0.697509765625,-0.147705078125,-47.2158355060762,41.39294113553352,0,15,17.4,0,-2.2,0,-1,0,0,0,-37.2,50.4
1528558043134,17.695661506245845,16.086965005678042,-2.50381679389313,2.1908396946564888,-3.4732824427480917,-0.749267578125,0.532958984375,-0.08203125,-35.26342762611917,54.25808237034872,0,15,17.4,0,-2.2,0,-1,0,0,0,-37.2,50.4
1528558043234,17.695661506245845,16.086965005678042,-7.091603053435114,2.145038167938931,0.3893129770992366,-0.701904296875,0.60888671875,-0.29638671875,-38.630201338935294,46.02661195289625,0,15,17.4,0,-2.2,0,-1,0,0,0,-37.2,50.4
1528558043334,17.695661506245845,16.086965005678042,-6.206106870229007,2.2977099236641223,-0.3969465648854962,-0.679931640625,0.5478515625,0.0185546875,-38.84954005415457,51.123995278185134,0,15,17.4,0,-2.2,0,-1,0,0,0,-37.2,50.4
1528558043434,17.695661506245845,16.086965005678042,7.442748091603053,-4.938931297709924,-0.9007633587786259,-0.7861328125,0.484375,-0.2548828125,-30.37509524328838,55.152530208559526,0,15,17.4,0,-2.2,0,-1,0,0,0,-37.2,50.4
1528558043534,17.695661506245845,16.086965005678042,-6,0.5801526717557252,3.9770992366412212,-0.74853515625,0.604248046875,-0.22998046875,-37.65527196629763,49.181750375270084,0,15,17.4,0,-2.2,0,-1,0,0,0,-37.2,50.4
1528558043634,17.695661506245845,16.086965005678042,-5.068702290076335,3.717557251908397,-0.5190839694656488,-0.693115234375,0.646728515625,0.0078125,-43.015339929199065,46.98075961279929,0,15,17.4,0,-2.2,0,-1,0,0,0,-37.2,50.4
1528558043733,17.695661506245845,16.086965005678042,-1.5725190839694656,0.3282442748091603,-3.7709923664122136,-0.79150390625,0.68017578125,-0.162109375,-40.09302427517382,48.54211056209495,0,15,17.4,0,-2.2,0,-1,0,0,0,-37.2,50.4
1528558043835,17.695661506245845,16.086965005678042,-4.9541984732824424,2.450381679389313,-3.8091603053435112,-0.739013671875,0.663818359375,-0.06298828125,-41.828670983881956,47.94057517231829,0,15.8,17.4,0,-2.4,0,-1,0,0,0,-37.2,50.2
1528558043935,17.695661506245845,16.086965005678042,-4.419847328244275,3.6106870229007635,-3.9618320610687023,-0.763427734375,0.582275390625,0.000732421875,-37.33318302344606,52.66678240502317,0,15.8,17.4,0,-2.4,0,-1,0,0,0,-37.2,50.2
1528558044036,17.695661506245845,16.086965005678042,-1.8015267175572518,-0.16793893129770993,-1.099236641221374,-0.725341796875,0.52490234375,-0.2939453125,-33.849052322945674,50.32747082430419,0,15.8,17.4,0,-2.4,0,-1,0,0,0,-37.2,50.2
1528558044136,17.695661506245845,16.086965005678042,-7.351145038167939,1.1755725190839694,-1.984732824427481,-0.736572265625,0.62744140625,-0.142822265625,-39.90452009969311,48.858581626168856,0,15.8,17.4,0,-2.4,0,-1,0,0,0,-37.2,50.2
1528558044236,17.695661506245845,16.086965005678042,0.08396946564885496,-3.8091603053435112,-0.5190839694656488,-0.813232421875,0.468505859375,-0.2236328125,-29.05142504390644,57.44707320371008,0,15.8,17.4,0,-2.4,0,-1,0,0,0,-37.2,50.2
1528558044336,17.695661506245845,16.086965005678042,-7.290076335877862,2.435114503816794,4.282442748091603,-0.813720703125,0.49755859375,-0.1953125,-30.734608107254257,56.69973891660546,0,15.8,17.4,0,-2.4,0,-1,0,0,0,-37.2,50.2
1528558044436,17.695661506245845,16.086965005678042,-4.312977099236641,1.6870229007633588,0.03816793893129771,-0.576904296875,0.699951171875,-0.0703125,-50.296964271183384,39.35446614985406,0,15.8,17.4,0,-2.4,0,-1,0,0,0,-37.2,50.2
1528558044536,17.695661506245845,16.086965005678042,7.6106870229007635,-4.603053435114504,-4.687022900763359,-0.740478515625,0.6044921875,-0.086669921875,-39.03577330386295,50.48754439415092,0,15.8,17.4,0,-2.4,0,-1,0,0,0,-37.2,50.2
1528558044636,17.695661506245845,16.086965005678042,-7.145038167938932,3.984732824427481,-0.549618320610687,-0.75,0.6328125,-0.140869140625,-39.667202173338836,49.15976733332092,0,15.8,17.4,0,-2.4,0,-1,0,0,0,-37.2,50.2
1528558044736,17.695661506245845,16.086965005678042,-8.404580152671755,7.259541984732825,-1.9770992366412214,-0.662841796875,0.744873046875,0.005615234375,-48.33398346077594,41.664187081805586,0,15.8,17.4,0,-2.4,0,-1,0,0,0,-37.2,50.2
1528558044837,17.695661506245845,16.086965005678042,2.2442748091603053,-2.1068702290076335,-4.793893129770993,-0.769775390625,0.573974609375,-0.255126953125,-35.29003387366632,50.78623501205325,0,16.4,17.4,0,-2.6,0.2,-1,0,0,0,-37.4,50
1528558044937,17.695661506245845,16.086965005678042,-2.7557251908396947,-1.7709923664122138,0.40458015267175573,-0.7763671875,0.569091796875,-0.096435546875,-36.0332131935255,53.370351586640524,0,16.4,17.4,0,-2.6,0.2,-1,0,0,0,-37.4,50
1528558045037,17.695661506245845,16.086965005678042,-2.3435114503816794,1.4274809160305344,2.2977099236641223,-0.75341796875,0.608642578125,-0.122802734375,-38.566057897644164,50.507345230546505,0,16.4,17.4,0,-2.6,0.2,-1,0,0,0,-37.4,50
1528558045137,17.695661506245845,16.086965005678042,-0.4122137404580153,-1.3969465648854962,4.1679389312977095,-0.768310546875,0.612548828125,-0.186279296875,-37.76920915722853,50.1949538654201,0,16.4,17.4,0,-2.6,0.2,-1,0,0,0,-37.4,50
1528558045238,17.695661506245845,16.086965005678042,-3.816793893129771,1.2900763358778626,-1.0763358778625953,-0.70361328125,0.588134765625,0.06689453125,-39.76470842804063,49.92719558833049,0,16.4,17.4,0,-2.6,0.2,-1,0,0,0,-37.4,50
1528558045338,17.695661506245845,16.086965005678042,6.122137404580153,-3.900763358778626,-4.984732824427481,-0.801025390625,0.6435546875,-0.185302734375,-38.05179740040517,50.10252401074904,0,16.4,17.4,0,-2.6,0.2,-1,0,0,0,-37.4,50
1528558045438,17.695661506245845,16.086965005678042,-9.206106870229007,2.1297709923664123,-3.1297709923664123,-0.666015625,0.641845703125,-0.284912109375,-41.54225140900146,43.48346239118646,0,16.4,17.4,0,-2.6,0.2,-1,0,0,0,-37.4,50
1528558045539,17.695661506245845,16.086965005678042,-0.7022900763358778,0.5801526717557252,-2.564885496183206,-0.74462890625,0.52294921875,-0.028564453125,-35.06036897322287,54.879671008047595,0,16.4,17.4,0,-2.6,0.2,-1,0,0,0,-37.4,50
1528558045639,17.695661506245845,16.086965005678042,-9.366412213740459,5.076335877862595,-0.31297709923664124,-0.7470703125,0.528076171875,-0.24755859375,-33.860921076904724,52.02152064987891,0,16.4,17.4,0,-2.6,0.2,-1,0,0,0,-37.4,50
1528558045739,16.086965005678042,16.086965005678042,-4.290076335877862,0.12213740458015267,-0.3969465648854962,-0.677734375,0.7158203125,0.013671875,-46.55968834553639,43.42927591387636,0,16.4,17.4,0,-2.6,0.2,-1,0,0,0,-37.4,50
1528558045839,16.086965005678042,16.086965005678042,5.488549618320611,-4.183206106870229,-3.0839694656488548,-0.757568359375,0.512939453125,-0.24267578125,-32.814366039209375,53.165319169760544,0,17,17.2,0,-2.6,0.2,-0.8,0,0,0,-37.8,49.6
1528558045940,16.086965005678042,16.086965005678042,-0.48091603053435117,-2.4198473282442747,2.2748091603053435,-0.7431640625,0.561767578125,-0.261474609375,-35.49134099281118,50.179187814502136,0,17,17.2,0,-2.6,0.2,-0.8,0,0,0,-37.8,49.6
1528558046040,16.086965005678042,16.086965005678042,-7.694656488549619,1.984732824427481,1.9465648854961832,-0.70654296875,0.642822265625,-0.11474609375,-41.92534004719837,47.25605021655164,0,17,17.2,0,-2.6,0.2,-0.8,0,0,0,-37.8,49.6
1528558046140,16.086965005678042,16.086965005678042,-1.5419847328244274,-1.099236641221374,-2.564885496183206,-0.7099609375,0.572509765625,-0.106689453125,-38.57033814774019,50.63869615289921,0,17,17.2,0,-2.6,0.2,-0.8,0,0,0,-37.8,49.6
1528558046241,17.695661506245845,32.173930011356084,-6.786259541984733,5.885496183206107,-1.1450381679389312,-0.692626953125,0.611083984375,-0.19775390625,-40.31023601304908,47.15969672446966,0,17,17.2,0,-2.6,0.2,-0.8,0,0,0,-37.8,49.6
1528558046341,17.695661506245845,32.173930011356084,-6.122137404580153,2.931297709923664,-3.801526717557252,-0.70166015625,0.66748046875,-0.158447265625,-42.85893156063828,45.645364014657076,0,17,17.2,0,-2.6,0.2,-0.8,0,0,0,-37.8,49.6
1528558046441,17.695661506245845,32.173930011356084,2.5877862595419847,-0.7480916030534351,-4.282442748091603,-0.73828125,0.52392578125,-0.095947265625,-35.1355077338358,54.191139450941975,0,17,17.2,0,-2.6,0.2,-0.8,0,0,0,-37.8,49.6
1528558046541,17.695661506245845,32.173930011356084,-6.480916030534351,2.7480916030534353,-0.05343511450381679,-0.7119140625,0.59423828125,-0.128662109375,-39.39963164389547,49.501144283015684,0,17,17.2,0,-2.6,0.2,-0.8,0,0,0,-37.8,49.6
1528558046650,17.695661506245845,32.173930011356084,-1.8091603053435115,-3.900763358778626,-0.5877862595419847,-0.771240234375,0.565673828125,-0.13623046875,-35.83977504115004,52.968004245946645,0,17,17.2,0,-2.6,0.2,-0.8,0,0,0,-37.8,49.6
1528558046741,17.695661506245845,16.086965005678042,-0.5801526717557252,-3.5267175572519083,0.6412213740458015,-0.752685546875,0.505615234375,-0.20751953125,-32.926544301882004,54.0156148820827,0,17,17.2,0,-2.6,0.2,-0.8,0,0,0,-37.8,49.6
1528558046841,17.695661506245845,16.086965005678042,-7.122137404580153,4.526717557251908,-0.7862595419847328,-0.72509765625,0.643310546875,-0.0634765625,-41.47105979452481,48.28255270995202,0,17,17.6,0,-2.4,0.2,-0.8,0,0,0,-37.8,49.6
1528558046941,17.695661506245845,16.086965005678042,3.33587786259542,-3.5114503816793894,-2.267175572519084,-0.74267578125,0.556884765625,-0.130126953125,-36.44898687435553,52.40248373468665,0,17,17.6,0,-2.4,0.2,-0.8,0,0,0,-37.8,49.6
1528558047041,17.695661506245845,16.086965005678042,-2.885496183206107,0.8702290076335878,-0.12213740458015267,-0.7216796875,0.72998046875,-0.178466796875,-44.477428983059376,43.84113867121245,0,17,17.6,0,-2.4,0.2,-0.8,0,0,0,-37.8,49.6
1528558047141,17.695661506245845,16.086965005678042,-5.022900763358779,0.8702290076335878,-3.4580152671755724,-0.691650390625,0.5703125,-0.14013671875,-38.943291058531635,49.665559375099946,0,17,17.6,0,-2.4,0.2,-0.8,0,0,0,-37.8,49.6
1528558047241,17.695661506245845,16.086965005678042,-2.3893129770992365,2.2442748091603053,-1.4198473282442747,-0.86767578125,0.634033203125,-0.103515625,-35.96391016280236,53.4837213628937,0,17,17.6,0,-2.4,0.2,-0.8,0,0,0,-37.8,49.6
1528558047341,17.695661506245845,16.086965005678042,-15.763358778625955,12.877862595419847,-2.2748091603053435,-0.732421875,0.526611328125,-0.230712890625,-34.44159798801234,51.868966963324546,0,17,17.6,0,-2.4,0.2,-0.8,0,0,0,-37.8,49.6
1528558047441,17.695661506245845,16.086965005678042,6.320610687022901,-7.3893129770992365,-3.6412213740458017,-0.7001953125,0.62451171875,-0.15478515625,-41.05213526353993,47.420180298124485,0,17,17.6,0,-2.4,0.2,-0.8,0,0,0,-37.8,49.6
1528558047541,17.695661506245845,16.086965005678042,1.0458015267175573,-4.6106870229007635,-0.183206106870229,-0.893798828125,0.513427734375,-0.25,-28.95140672308082,57.425006960452784,0,17,17.6,0,-2.4,0.2,-0.8,0,0,0,-37.8,49.6
1528558047641,17.695661506245845,16.086965005678042,-8.541984732824428,2.7099236641221376,8.305343511450381,-0.809814453125,0.622314453125,-0.201416015625,-36.71356209956935,51.071740895950505,0,17,17.6,0,-2.4,0.2,-0.8,0,0,0,-37.8,49.6
1528558047740,17.695661506245845,16.086965005678042,-3.1526717557251906,1.5114503816793894,-1.4885496183206106,-0.507080078125,0.818603515625,-0.14599609375,-57.193820021324804,31.37578261719796,0,17,17.6,0,-2.4,0.2,-0.8,0,0,0,-37.8,49.6
1528558047842,17.695661506245845,16.086965005678042,6.633587786259542,-5.419847328244275,-3.366412213740458,-0.754150390625,0.560546875,-0.03076171875,-36.59998161040563,53.33596579240163,0,17,17.6,0,-2.6,0.4,-0.8,0,0,0,-38.2,49
1528558047942,17.695661506245845,16.086965005678042,-10.396946564885496,6.961832061068702,-5.564885496183206,-0.607666015625,0.75,-0.154296875,-50.1066534474939,38.435551543936306,0,17,17.6,0,-2.6,0.4,-0.8,0,0,0,-38.2,49
1528558048042,17.695661506245845,16.086965005678042,2.5801526717557253,-2.183206106870229,-10.091603053435115,-0.8212890625,0.5478515625,-0.037109375,-33.67881864806178,56.23364628056447,0,17,17.6,0,-2.6,0.4,-0.8,0,0,0,-38.2,49
1528558048141,17.695661506245845,16.086965005678042,-1.9312977099236641,-0.21374045801526717,0.20610687022900764,-0.7548828125,0.486083984375,-0.241455078125,-31.52120946703764,54.284373299343216,0,17,17.6,0,-2.6,0.4,-0.8,0,0,0,-38.2,49
1528558048242,17.695661506245845,16.086965005678042,-6.587786259541985,1.9541984732824427,0.7633587786259542,-0.678955078125,0.573486328125,-0.087646484375,-39.95321537730863,49.487179196501316,0,17,17.6,0,-2.6,0.4,-0.8,0,0,0,-38.2,49
1528558048341,17.695661506245845,16.086965005678042,3.3282442748091605,-4.824427480916031,-2.6793893129770994,-0.81005859375,0.54052734375,-0.12890625,-33.38400148196666,55.55057324595166,0,17,17.6,0,-2.6,0.4,-0.8,0,0,0,-38.2,49
1528558048442,17.695661506245845,16.086965005678042,-8.450381679389313,4.1603053435114505,1.1603053435114503,-0.714111328125,0.6630859375,-0.1689453125,-42.10108180145115,46.2224996696194,0,17,17.6,0,-2.6,0.4,-0.8,0,0,0,-38.2,49
1528558048542,17.695661506245845,16.086965005678042,4.1679389312977095,-2.5267175572519083,-1.1984732824427482,-0.73291015625,0.68408203125,-0.179931640625,-42.19106273462653,46.01672736328868,0,17,17.6,0,-2.6,0.4,-0.8,0,0,0,-38.2,49
1528558048642,17.695661506245845,16.086965005678042,-4.931297709923665,3.6412213740458017,-0.15267175572519084,-0.79150390625,0.51220703125,-0.16064453125,-32.38290428341743,55.854386838933024,0,17,17.6,0,-2.6,0.4,-0.8,0,0,0,-38.2,49
1528558048742,19.304358006813647,32.173930011356084,-13.900763358778626,11.473282442748092,-5.343511450381679,-0.709228515625,0.678466796875,-0.2421875,-42.154502512029815,44.552400543598175,0,17,17.6,0,-2.6,0.4,-0.8,0,0,0,-38.2,49
1528558048842,19.304358006813647,32.173930011356084,0.03816793893129771,-2.3969465648854964,-7.068702290076335,-0.772705078125,0.47802734375,-0.138916015625,-31.336399314131377,57.208984197703955,0,17,17.8,0,-2.4,0.6,-1,0,0,0,-38.2,49
1528558048943,19.304358006813647,32.173930011356084,-4.068702290076335,2.3969465648854964,-1.9465648854961832,-0.810302734375,0.550048828125,-0.178466796875,-33.54160618143891,54.48624644270829,0,17,17.8,0,-2.4,0.6,-1,0,0,0,-38.2,49
1528558049043,19.304358006813647,32.173930011356084,-3.2442748091603053,-0.916030534351145,-0.8473282442748091,-0.746826171875,0.594482421875,-0.075439453125,-38.37857076617892,51.25660128455247,0,17,17.8,0,-2.4,0.6,-1,0,0,0,-38.2,49
1528558049143,19.304358006813647,32.173930011356084,3.732824427480916,-5.022900763358779,0.5114503816793893,-0.82763671875,0.487060546875,-0.1171875,-30.228652853328988,58.81391317039608,0,17,17.8,0,-2.4,0.6,-1,0,0,0,-38.2,49
1528558049242,19.304358006813647,16.086965005678042,-7.641221374045801,2.801526717557252,1.2213740458015268,-0.63330078125,0.703369140625,-0.0703125,-47.82612359436258,41.857684945266044,0,17,17.8,0,-2.4,0.6,-1,0,0,0,-38.2,49
1528558049343,19.304358006813647,16.086965005678042,3.66412213740458,-0.08396946564885496,-3.5343511450381677,-0.758056640625,0.593994140625,-0.185791015625,-37.272972369713074,50.61365027069874,0,17,17.8,0,-2.4,0.6,-1,0,0,0,-38.2,49
1528558049443,19.304358006813647,16.086965005678042,-11.557251908396946,6.366412213740458,-0.3282442748091603,-0.78125,0.582763671875,-0.218505859375,-35.69230370464674,51.45749441865915,0,17,17.8,0,-2.4,0.6,-1,0,0,0,-38.2,49
1528558049543,19.304358006813647,16.086965005678042,-8.908396946564885,2.33587786259542,-4.251908396946565,-0.73193359375,0.71435546875,-0.07666015625,-44.147447277565114,45.53235834291824,0,17,17.8,0,-2.4,0.6,-1,0,0,0,-38.2,49
1528558049643,19.304358006813647,16.086965005678042,3.786259541984733,-1.5648854961832062,-4.2748091603053435,-0.821044921875,0.514892578125,-0.169677734375,-31.555799288654388,56.563508619779526,0,17,17.8,0,-2.4,0.6,-1,0,0,0,-38.2,49
1528558049744,19.304358006813647,16.086965005678042,-8.50381679389313,5.587786259541985,-0.48854961832061067,-0.6669921875,0.55908203125,-0.1171875,-39.542004262515285,49.42228079797889,0,17,17.8,0,-2.4,0.6,-1,0,0,0,-38.2,49
1528558049844,19.304358006813647,16.086965005678042,3.984732824427481,-4.480916030534351,-0.7404580152671756,-0.75,0.55712890625,-0.160888671875,-35.991455459634025,52.28906115857671,0,17.4,19,0,-2.4,0.4,-1.2,0,0,0,-37.6,49.4
1528558049944,19.304358006813647,16.086965005678042,-2.053435114503817,-0.8778625954198473,4.061068702290076,-0.765869140625,0.574462890625,-0.051513671875,-36.81076659693075,53.01698311299285,0,17.4,19,0,-2.4,0.4,-1.2,0,0,0,-37.6,49.4
1528558050045,19.304358006813647,16.086965005678042,-9.633587786259541,5.435114503816794,-2.8244274809160306,-0.67333984375,0.701171875,-0.087890625,-45.91817013654259,43.61690536017479,0,17.4,19,0,-2.4,0.4,-1.2,0,0,0,-37.6,49.4
1528558050145,19.304358006813647,16.086965005678042,9.48091603053435,-5.122137404580153,-3.931297709923664,-0.75390625,0.5,-0.199462890625,-32.66604666387165,54.47174535754151,0,17.4,19,0,-2.4,0.4,-1.2,0,0,0,-37.6,49.4
1528558050245,20.913054507381453,32.173930011356084,-15.129770992366412,8.648854961832061,1.8091603053435115,-0.65673828125,0.728271484375,-0.248046875,-46.051475322108146,40.4848096159614,0,17.4,19,0,-2.4,0.4,-1.2,0,0,0,-37.6,49.4
1528558050346,20.913054507381453,32.173930011356084,-7.480916030534351,3.900763358778626,-2.954198473282443,-0.718505859375,0.592529296875,-0.03759765625,-39.472888799682394,50.43215125303419,0,17.4,19,0,-2.4,0.4,-1.2,0,0,0,-37.6,49.4
1528558050446,20.913054507381453,32.173930011356084,-0.4580152671755725,-1.9083969465648856,-2.0916030534351147,-0.82861328125,0.548583984375,-0.11669921875,-33.248082593621994,55.90730787748474,0,17.4,19,0,-2.4,0.4,-1.2,0,0,0,-37.6,49.4
1528558050546,20.913054507381453,32.173930011356084,-9.687022900763358,2.2519083969465647,0.183206106870229,-0.805908203125,0.7255859375,-0.2294921875,-40.889596450609616,46.641161003177785,0,17.4,19,0,-2.4,0.4,-1.2,0,0,0,-37.6,49.4
1528558050646,20.913054507381453,32.173930011356084,1.8931297709923665,-2.8473282442748094,-1.16793893129771,-0.749755859375,0.58935546875,-0.13818359375,-37.7055778059971,51.08326369872074,0,17.4,19,0,-2.4,0.4,-1.2,0,0,0,-37.6,49.4
1528558050745,20.913054507381453,16.086965005678042,-0.3511450381679389,-1.7328244274809161,1.2061068702290076,-0.760986328125,0.521240234375,-0.171142578125,-33.75331052796808,54.21105369364617,0,17.4,19,0,-2.4,0.4,-1.2,0,0,0,-37.6,49.4
1528558050846,20.913054507381453,16.086965005678042,-6.557251908396947,2.4885496183206106,-0.35877862595419846,-0.64501953125,0.633544921875,-0.038330078125,-44.43532290573554,45.461865551467746,0,18,20.6,0,-2.4,0.4,-1,0,0,0,-37.6,49.6
1528558050947,20.913054507381453,16.086965005678042,4.122137404580153,-3.2213740458015265,-1.0916030534351144,-0.789794921875,0.491943359375,-0.18505859375,-31.234697447668314,56.35668266615622,0,18,20.6,0,-2.4,0.4,-1,0,0,0,-37.6,49.6
1528558051046,20.913054507381453,16.086965005678042,-13.244274809160306,4.450381679389313,1.7786259541984732,-0.748046875,0.745361328125,-0.208251953125,-43.82805909851847,44.02655009708446,0,18,20.6,0,-2.4,0.4,-1,0,0,0,-37.6,49.6
1528558051147,20.913054507381453,16.086965005678042,-3.145038167938931,0.8015267175572519,-5.854961832061068,-0.678466796875,0.688720703125,-0.20166015625,-44.21718179380935,43.39288096833185,0,18,20.6,0,-2.4,0.4,-1,0,0,0,-37.6,49.6
1528558051247,19.304358006813647,16.086965005678042,-2.0916030534351147,2.49618320610687,-2.435114503816794,-0.803466796875,0.459228515625,-0.109130859375,-29.525413800400415,59.566792608463246,0,18,20.6,0,-2.4,0.4,-1,0,0,0,-37.6,49.6
1528558051347,19.304358006813647,16.086965005678042,-2.198473282442748,2.7404580152671754,-2.885496183206107,-0.675048828125,0.570068359375,-0.078857421875,-39.98928163240592,49.55154529089918,0,18,20.6,0,-2.4,0.4,-1,0,0,0,-37.6,49.6
1528558051446,19.304358006813647,16.086965005678042,4.893129770992366,-5.343511450381679,-0.015267175572519083,-0.824951171875,0.630126953125,-0.225830078125,-36.38016195046353,50.943837628745634,0,18,20.6,0,-2.4,0.4,-1,0,0,0,-37.6,49.6
1528558051547,19.304358006813647,16.086965005678042,-6.015267175572519,0.8854961832061069,4.030534351145038,-0.773681640625,0.613037109375,-0.07666015625,-38.25586016820068,51.391418591373935,0,18,20.6,0,-2.4,0.4,-1,0,0,0,-37.6,49.6
1528558051647,19.304358006813647,16.086965005678042,-6.267175572519084,4.305343511450381,-1.7251908396946565,-0.71337890625,0.689697265625,-0.04443359375,-43.977602739570735,45.90767014959818,0,18,20.6,0,-2.4,0.4,-1,0,0,0,-37.6,49.6
1528558051747,20.913054507381453,32.173930011356084,4.541984732824427,-4.366412213740458,-3.381679389312977,-0.798828125,0.60888671875,-0.217041015625,-36.33666266922928,51.02015777578221,0,18,20.6,0,-2.4,0.4,-1,0,0,0,-37.6,49.6
1528558051847,20.913054507381453,32.173930011356084,-13,6.427480916030534,-1.282442748091603,-0.76416015625,0.638427734375,-0.252685546875,-38.42220104494504,48.05960228943888,0,18.6,19.2,0,-2.4,0.4,-1,0,0,0,-37.8,49.4
1528558051947,20.913054507381453,32.173930011356084,-2.984732824427481,1.0534351145038168,-3.8396946564885495,-0.7724609375,0.60791015625,-0.134765625,-37.78529181474128,51.12824690548009,0,18.6,19.2,0,-2.4,0.4,-1,0,0,0,-37.8,49.4
1528558052047,20.913054507381453,32.173930011356084,-2.3053435114503817,1.2213740458015268,-2.854961832061069,-0.7724609375,0.51025390625,-0.031494140625,-33.425127425706506,56.50287865258215,0,18.6,19.2,0,-2.4,0.4,-1,0,0,0,-37.8,49.4
1528558052148,20.913054507381453,32.173930011356084,0.4122137404580153,-1.8473282442748091,-1.2213740458015268,-0.760498046875,0.6025390625,-0.23876953125,-37.08615082453317,49.561178016026126,0,18.6,19.2,0,-2.4,0.4,-1,0,0,0,-37.8,49.4
1528558052247,20.913054507381453,16.086965005678042,-4.793893129770993,-0.030534351145038167,2,-0.786376953125,0.556884765625,-0.09716796875,-35.10032059834541,54.28898779492647,0,18.6,19.2,0,-2.4,0.4,-1,0,0,0,-37.8,49.4
1528558052347,20.913054507381453,16.086965005678042,-7.442748091603053,2.7099236641221376,-2.7557251908396947,-0.57373046875,0.747802734375,0.033203125,-52.457527810240045,37.46895676571473,0,18.6,19.2,0,-2.4,0.4,-1,0,0,0,-37.8,49.4
1528558052448,20.913054507381453,16.086965005678042,7.312977099236641,-4.900763358778626,-2.0610687022900764,-0.8056640625,0.469970703125,-0.214599609375,-29.409066919255046,57.329160409422826,0,18.6,19.2,0,-2.4,0.4,-1,0,0,0,-37.8,49.4
1528558052548,20.913054507381453,16.086965005678042,-12.793893129770993,8.01526717557252,2.480916030534351,-0.703857421875,0.63134765625,-0.22607421875,-40.49770183364784,46.38594114849545,0,18.6,19.2,0,-2.4,0.4,-1,0,0,0,-37.8,49.4
1528558052648,20.913054507381453,16.086965005678042,-0.31297709923664124,-1.099236641221374,-7.473282442748092,-0.640380859375,0.74609375,-0.110595703125,-48.943561477135304,40.332398403661756,0,18.6,19.2,0,-2.4,0.4,-1,0,0,0,-37.8,49.4
1528558052749,20.913054507381453,16.086965005678042,0.3511450381679389,-1.4274809160305344,-3.8091603053435112,-0.883056640625,0.427734375,-0.13623046875,-25.58119194387763,63.053345069499095,0,18.6,19.2,0,-2.4,0.4,-1,0,0,0,-37.8,49.4
1528558052850,20.913054507381453,16.086965005678042,-11.748091603053435,6.015267175572519,2.854961832061069,-0.74365234375,0.558349609375,-0.162353515625,-36.26163864213999,51.97752463196182,0,19.2,20.4,0,-2.4,0.4,-1.4,0,0,0,-37.4,49.8
1528558052950,20.913054507381453,16.086965005678042,0.8778625954198473,-0.022900763358778626,-1.0534351145038168,-0.76123046875,0.584228515625,-0.18115234375,-36.74608673885544,51.21718729810613,0,19.2,20.4,0,-2.4,0.4,-1.4,0,0,0,-37.4,49.8
1528558053050,20.913054507381453,16.086965005678042,2.717557251908397,-4.770992366412214,2.9389312977099236,-0.83154296875,0.52490234375,-0.053955078125,-32.20741547066641,57.60221622999848,0,19.2,20.4,0,-2.4,0.4,-1.4,0,0,0,-37.4,49.8
1528558053151,20.913054507381453,16.086965005678042,-10.80916030534351,5.450381679389313,1.1068702290076335,-0.654541015625,0.79931640625,-0.26806640625,-48.494699914713316,37.82499262056072,0,19.2,20.4,0,-2.4,0.4,-1.4,0,0,0,-37.4,49.8
1528558053250,22.521751007949256,32.173930011356084,1.4198473282442747,-1.8244274809160306,-1.8702290076335877,-0.67626953125,0.70849609375,0.00830078125,-46.331003468893826,43.664877054565736,0,19.2,20.4,0,-2.4,0.4,-1.4,0,0,0,-37.4,49.8
1528558053351,22.521751007949256,32.173930011356084,-7.297709923664122,3.0763358778625953,-4.580152671755725,-0.7353515625,0.569091796875,-0.16455078125,-37.0610815293879,51.144858089730846,0,19.2,20.4,0,-2.4,0.4,-1.4,0,0,0,-37.4,49.8
1528558053451,22.521751007949256,32.173930011356084,-4.129770992366412,2.2595419847328246,-6.297709923664122,-0.809814453125,0.600830078125,-0.12841796875,-36.233186269379814,52.81266712940829,0,19.2,20.4,0,-2.4,0.4,-1.4,0,0,0,-37.4,49.8
1528558053551,22.521751007949256,32.173930011356084,-1.3893129770992367,-0.9083969465648855,-3.900763358778626,-0.803955078125,0.37060546875,-0.1708984375,-24.270753030114108,63.08631739950074,0,19.2,20.4,0,-2.4,0.4,-1.4,0,0,0,-37.4,49.8
1528558053651,22.521751007949256,32.173930011356084,-8.770992366412214,3.946564885496183,0.9389312977099237,-0.745361328125,0.622802734375,-0.22265625,-38.68123001116987,48.41530142945086,0,19.2,20.4,0,-2.4,0.4,-1.4,0,0,0,-37.4,49.8
1528558053751,20.913054507381453,16.086965005678042,0.10687022900763359,-2.099236641221374,1.8091603053435115,-0.759521484375,0.551513671875,-0.29833984375,-34.05329161443974,50.45804375076254,0,19.2,20.4,0,-2.4,0.4,-1.4,0,0,0,-37.4,49.8
1528558053852,20.913054507381453,16.086965005678042,-7.198473282442748,0.1984732824427481,3.3282442748091605,-0.76806640625,0.65966796875,0.0380859375,-40.623469019476204,49.29463369337605,0,20,21.8,0,-2.6,0.4,-1,0,0,0,-37.2,50
1528558053952,20.913054507381453,16.086965005678042,-0.8396946564885496,0.06870229007633588,-1.702290076335878,-0.6865234375,0.627197265625,-0.0107421875,-42.410850477500865,47.581473077505514,0,20,21.8,0,-2.6,0.4,-1,0,0,0,-37.2,50
1528558054052,20.913054507381453,16.086965005678042,1.2061068702290076,-1.6412213740458015,-3.763358778625954,-0.72802734375,0.591552734375,-0.12158203125,-38.71017859750834,50.323397579183364,0,20,21.8,0,-2.6,0.4,-1,0,0,0,-37.2,50
1528558054152,20.913054507381453,16.086965005678042,-9.099236641221374,5.786259541984733,-4.374045801526718,-0.68896484375,0.627197265625,-0.267578125,-40.31775448677098,45.29567999952132,0,20,21.8,0,-2.6,0.4,-1,0,0,0,-37.2,50
1528558054252,20.913054507381453,16.086965005678042,-0.11450381679389313,-0.8244274809160306,-3.931297709923664,-0.854736328125,0.557861328125,-0.08447265625,-33.00398410350947,56.57077050478257,0,20,21.8,0,-2.6,0.4,-1,0,0,0,-37.2,50
1528558054352,20.913054507381453,16.086965005678042,-5.511450381679389,0.24427480916030533,1.9389312977099236,-0.734619140625,0.655517578125,-0.064697265625,-41.63333570994356,48.118737315753336,0,20,21.8,0,-2.6,0.4,-1,0,0,0,-37.2,50
1528558054451,20.913054507381453,16.086965005678042,-3.5877862595419847,-1.0687022900763359,-1.465648854961832,-0.731201171875,0.528076171875,-0.169921875,-35.124802622422294,52.813456266869785,0,20,21.8,0,-2.6,0.4,-1,0,0,0,-37.2,50
1528558054552,20.913054507381453,16.086965005678042,-2.1603053435114505,-0.5038167938931297,0.7404580152671756,-0.7919921875,0.563232421875,-0.182373046875,-34.722836493535944,53.22149669039583,0,20,21.8,0,-2.6,0.4,-1,0,0,0,-37.2,50
1528558054652,20.913054507381453,16.086965005678042,-9.511450381679388,3.2061068702290076,2.3206106870229006,-0.714599609375,0.68359375,-0.072998046875,-43.581103050694665,46.10808922698031,0,20,21.8,0,-2.6,0.4,-1,0,0,0,-37.2,50
1528558054752,20.913054507381453,16.086965005678042,1.7404580152671756,0.9694656488549618,-2.5572519083969465,-0.71630859375,0.69091796875,-0.16455078125,-43.230598193940594,45.243630786544934,0,20,21.8,0,-2.6,0.4,-1,0,0,0,-37.2,50
1528558054852,20.913054507381453,16.086965005678042,1.4580152671755726,0.1984732824427481,-2.954198473282443,-0.758056640625,0.585693359375,-0.15771484375,-37.10484816595403,51.335071800550075,0,20.2,20.6,0,-2.6,0.4,-0.6,0,0,0,-37.8,49.6
1528558054953,20.913054507381453,16.086965005678042,-4.435114503816794,1.534351145038168,-3.3740458015267176,-0.7529296875,0.5830078125,-0.092529296875,-37.54362443406059,51.90317949369604,0,20.2,20.6,0,-2.6,0.4,-0.6,0,0,0,-37.8,49.6
1528558055053,20.913054507381453,16.086965005678042,-1.2595419847328244,-0.7938931297709924,-3.2519083969465647,-0.84765625,0.5009765625,-0.12353515625,-30.32061956551894,58.6704035561236,0,20.2,20.6,0,-2.6,0.4,-0.6,0,0,0,-37.8,49.6
